timestamp,ax,ay,az,gx,gy,gz,lin_ax,lin_ay,lin_az,grav_x,grav_y,grav_z,speed,lat,lon,prob_none,prob_pothole,prob_speedbump
1782141420369,-0.04695,9.7560005,2.1409502,0.0031625,-0.0127875,-0.002475,-0.21181498,0.15860176,0.13267684,0.16486499,9.597399,2.0082734,0.06167243,-6.9789775,110.4071113,0.86101955,0.012047174,0.12693325
1782141439268,-0.016050002,9.328051,2.08305,-0.5534375,0.4543,-0.0812625,-0.021825895,0.3212099,0.0028865337,0.062775895,9.4568405,2.5951135,0.062371723,-6.9789839,110.4071253,0.86101955,0.012047174,0.12693325
1782141439277,-0.040050004,9.663,2.8879502,-0.54065,0.43945,-0.0642125,-0.06994245,0.22832775,0.21279335,0.039828446,9.442461,2.6474032,0.062371723,-6.9789839,110.4071253,0.86101955,0.012047174,0.12693325
1782141439289,-0.11400001,9.59805,2.9260502,-0.5256625,0.3873375,-0.0504625,-0.11738614,0.18593979,0.17240548,0.01271569,9.419782,2.7272606,0.062371723,-6.9789839,110.4071253,0.86101955,0.012047174,0.12693325
1782141439296,-0.13305001,9.64095,2.97705,-0.499125,0.3617625,-0.0429,-0.12588699,0.23667526,0.19676924,0.0015749943,9.4116955,2.7550645,0.062371723,-6.9789839,110.4071253,0.86101955,0.012047174,0.12693325
1782141439307,-0.13800001,9.747001,3.0010502,-0.463925,0.3575,-0.037675,-0.10763264,0.36305904,0.15304494,-0.030367374,9.383942,2.8480053,0.062371723,-6.9789839,110.4071253,0.86101955,0.012047174,0.12693325
1782141439322,-0.112050004,9.807,3.0010502,-0.44055,0.348975,-0.0312125,-0.05446343,0.4757166,0.11893487,-0.0313973,9.383832,2.848354,0.062371723,-6.9789839,110.4071253,0.86101955,0.012047174,0.12693325
1782141439328,-0.14505,9.936001,3.01005,-0.414975,0.3436125,-0.018424999,-0.0864131,0.57674026,0.082387924,-0.0586369,9.359261,2.9276621,0.062371723,-6.9789839,110.4071253,0.86101955,0.012047174,0.12693325
1782141439337,-0.17205001,9.948001,3.0340502,-0.4043875,0.3436125,-0.011,-0.10615832,0.5942373,0.08902788,-0.059447046,9.359512,2.9268408,0.062371723,-6.9789839,110.4071253,0.86101955,0.012047174,0.12693325
1782141439348,-0.076050006,9.852,3.0940502,-0.3777125,0.347875,0.0070125,4.639104E-4,0.5093937,0.11407328,-0.07162673,9.348143,2.9626844,0.062371723,-6.9789839,110.4071253,0.86101955,0.012047174,0.12693325
1782141439356,-0.066,9.783,3.1729503,-0.3639625,0.347875,0.013475,0.01492589,0.44595528,0.17571068,-0.076513916,9.342607,2.979977,0.062371723,-6.9789839,110.4071253,0.86101955,0.012047174,0.12693325
1782141439370,-0.030000001,9.627001,3.3769503,-0.2990625,0.3276625,0.0240625,0.06175649,0.30620575,0.32986164,-0.08861469,9.3260765,3.0309792,0.062371723,-6.9789839,110.4071253,0.86101955,0.012047174,0.12693325
1782141439377,0.22500001,9.459001,3.52005,-0.2468125,0.2883375,0.029424999,0.3179799,0.14874649,0.440943,-0.0929799,9.310254,3.079107,0.062371723,-6.9789839,110.4071253,0.86101955,0.012047174,0.12693325
1782141439390,0.25395,9.4810505,3.489,-0.203225,0.1744875,0.0240625,0.34161952,0.17999554,0.38205576,-0.09022154,9.305379,3.093893,0.062371723,-6.9789839,110.4071253,0.86101955,0.012047174,0.12693325
1782141439398,0.15300001,9.603001,3.3960001,-0.1681625,0.0286,0.0081124995,0.23519695,0.30887032,0.26825666,-0.08219693,9.29413,3.1277435,0.062371723,-6.9789839,110.4071253,0.86101955,0.012047174,0.12693325
1782141439409,0.076950006,9.687,3.32205,-0.14795,-0.01705,0.00275,0.078837685,0.4350958,0.06649566,-0.08027911,9.291644,3.1351721,0.062371723,-6.9789839,110.4071253,0.86101955,0.012047174,0.12693325
1782141439418,0.024,9.63405,3.108,-0.104225,-0.107525,-0.005775,0.098477155,0.3467493,-0.040154934,-0.07696342,9.28842,3.144795,0.062371723,-6.9789839,110.4071253,0.86101955,0.012047174,0.12693325
1782141439428,-0.04695,9.523951,2.9260502,-0.104225,-0.20019999,-0.0078375,0.02179591,0.2375269,-0.22482562,-0.07171236,9.286673,3.1500745,0.062371723,-6.9789839,110.4071253,0.86101955,0.012047174,0.12693325
1782141439439,-0.028050002,9.385051,2.74005,-0.1436875,-0.2981,-0.0226875,0.029157743,0.09928036,-0.4129796,-0.06479484,9.287099,3.1489668,0.062371723,-6.9789839,110.4071253,0.86101955,0.012047174,0.12693325
1782141439448,-0.025050001,9.232051,2.60505,-0.1617,-0.3097875,-0.02695,0.02803774,-0.0554142,-0.5430558,-0.05687632,9.28814,3.1460483,0.062371723,-6.9789839,110.4071253,0.86101955,0.012047174,0.12693325
1782141439459,0.031050002,9.189,2.70795,-0.2011625,-0.2682625,-0.0334125,0.07706678,-0.09555817,-0.44882584,-0.049399406,9.286301,3.1515994,0.062371723,-6.9789839,110.4071253,0.86101955,0.012047174,0.12693325
1782141439470,0.031050002,9.2029505,2.9170501,-0.2404875,-0.1788875,-0.0419375,0.07295613,-0.07221794,-0.26726508,-0.043740943,9.282267,3.163543,0.062371723,-6.9789839,110.4071253,0.86101955,0.012047174,0.12693325
1782141439479,-0.00405,9.15795,3.18,-0.27885,-0.092675,-0.0504625,0.037339117,-0.11291218,-0.01684308,-0.04194354,9.270968,3.1965222,0.062371723,-6.9789839,110.4071253,0.86101955,0.012047174,0.12693325
1782141439495,-0.00405,9.12405,3.417,-0.31185,-0.027775,-0.070675,7.318221E-4,-0.173769,0.25536418,-0.042045243,9.265495,3.2123547,0.062371723,-6.9789839,110.4071253,0.86101955,0.012047174,0.12693325
1782141439496,-0.045,9.07905,3.5040002,-0.31185,-0.027775,-0.070675,7.318221E-4,-0.173769,0.25536418,-0.045731824,9.252819,3.248636,0.062371723,-6.9789839,110.4071253,0.86101955,0.012047174,0.12693325
1782141439509,-0.078,9.085951,3.7840502,-0.319275,-0.0565125,-0.0812625,-0.024982404,-0.14140129,0.4638729,-0.050165717,9.235921,3.2963083,0.062371723,-6.9789839,110.4071253,0.86101955,0.012047174,0.12693325
1782141439524,-0.13305001,9.1050005,3.8560503,-0.31185,-0.107525,-0.0908875,-0.062593915,-0.10529804,0.49653172,-0.056356095,9.219298,3.3424184,0.062371723,-6.9789839,110.4071253,0.86101955,0.012047174,0.12693325
1782141439529,-0.17205001,9.073951,3.9109502,-0.2883375,-0.1353,-0.0908875,-0.10593504,-0.12156582,0.5038235,-0.06287731,9.203316,3.3860612,0.062371723,-6.9789839,110.4071253,0.86101955,0.012047174,0.12693325
1782141439539,-0.22905001,9.1050005,3.8820002,-0.2490125,-0.1288375,-0.0886875,-0.15541252,-0.076740265,0.43807793,-0.06981792,9.1883135,3.42643,0.062371723,-6.9789839,110.4071253,0.86101955,0.012047174,0.12693325
1782141439549,-0.27195,9.0379505,3.8509502,-0.2085875,-0.098037496,-0.085525,-0.1892045,-0.1309433,0.3731742,-0.07702596,9.175357,3.4608192,0.062371723,-6.9789839,110.4071253,0.86101955,0.012047174,0.12693325
1782141439559,-0.15705001,9.11205,3.6660001,-0.186175,-0.075625,-0.0886875,0.04921292,-0.05335045,0.12276459,-0.08274551,9.168894,3.477776,0.062371723,-6.9789839,110.4071253,0.86101955,0.012047174,0.12693325
1782141439565,-0.08805001,9.14295,3.55095,-0.154275,-0.0160875,-0.1122,0.0059174374,-0.014205933,0.04266429,-0.089262925,9.160301,3.5001855,0.062371723,-6.9789839,110.4071253,0.86101955,0.012047174,0.12693325
1782141439576,-0.033,9.26805,3.2950501,-0.156475,0.0191125,-0.150425,0.07260586,0.113612175,-0.21998692,-0.09942075,9.155717,3.5118887,0.062371723,-6.9789839,110.4071253,0.86101955,0.012047174,0.12693325
1782141439585,-0.10005,9.318001,3.2310002,-0.2000625,0.0521125,-0.1962125,0.02350916,0.16706753,-0.29256845,-0.11375936,9.152759,3.5191598,0.062371723,-6.9789839,110.4071253,0.86101955,0.012047174,0.12693325
1782141439595,-0.17595,9.340051,3.2209501,-0.2629,0.0829125,-0.2281125,-0.0282913,0.19450092,-0.31564474,-0.13508564,9.148537,3.5293648,0.062371723,-6.9789839,110.4071253,0.86101955,0.012047174,0.12693325
1782141439612,-0.279,9.373051,3.3769503,-0.3287625,0.1255375,-0.2431,-0.102851704,0.23656368,-0.1816988,-0.16151626,9.141572,3.54626,0.062371723,-6.9789839,110.4071253,0.86101955,0.012047174,0.12693325
1782141439615,-0.351,9.399,3.489,-0.3565375,0.14355,-0.2451625,-0.15950479,0.2685423,-0.08430004,-0.19149522,9.130458,3.5733001,0.062371723,-6.9789839,110.4071253,0.86101955,0.012047174,0.12693325
1782141439626,-0.64605004,9.507001,4.00395,-0.3980625,0.136125,-0.2388375,-0.32176405,0.3651495,0.2685969,-0.22318596,9.115901,3.6084533,0.062371723,-6.9789839,110.4071253,0.86101955,0.012047174,0.12693325
1782141439636,-0.90000004,9.580951,4.25595,-0.37454998,0.0573375,-0.217525,-0.6327596,0.48876667,0.5910926,-0.25347733,9.10003,3.646314,0.062371723,-6.9789839,110.4071253,0.86101955,0.012047174,0.12693325
1782141439647,-1.0699501,9.579,4.41795,-0.319275,-0.0331375,-0.1813625,-0.779353,0.5014,0.71888065,-0.2905971,9.0776005,3.6990695,0.062371723,-6.9789839,110.4071253,0.86101955,0.012047174,0.12693325
1782141439656,-1.17495,9.47595,4.46595,-0.2393875,-0.1342,-0.143,-0.8673389,0.41035652,0.7389171,-0.29985797,9.071276,3.713819,0.062371723,-6.9789839,110.4071253,0.86101955,0.012047174,0.12693325
1782141439667,-1.17495,9.399,4.38,-0.155375,-0.2107875,-0.0983125,-0.85646796,0.34236717,0.63214993,-0.31375617,9.060683,3.738447,0.062371723,-6.9789839,110.4071253,0.86101955,0.012047174,0.12693325
1782141439679,-1.1770501,9.391951,4.368,-0.11385,-0.2321,-0.0759,-0.8490686,0.35099888,0.5980377,-0.318482,9.056633,3.7478502,0.062371723,-6.9789839,110.4071253,0.86101955,0.012047174,0.12693325
1782141439686,-1.161,9.44505,4.26795,-0.0020625,-0.2374625,0.00385,-0.8428272,0.3956318,0.50268865,-0.3246569,9.049478,3.7645657,0.062371723,-6.9789839,110.4071253,0.86101955,0.012047174,0.12693325
1782141439696,-1.005,9.5119505,4.1599503,0.0617375,-0.207625,0.07095,-0.68662405,0.46218777,0.3955357,-0.32209963,9.048896,3.766182,0.062371723,-6.9789839,110.4071253,0.86101955,0.012047174,0.12693325
1782141439708,-0.768,9.519,4.224,0.1203125,-0.1714625,0.13365,-0.46207556,0.46573448,0.46698046,-0.3130334,9.051298,3.7611704,0.062371723,-6.9789839,110.4071253,0.86101955,0.012047174,0.12693325
1782141439716,-0.31500003,9.330001,4.3710003,0.171325,-0.174625,0.1720125,-0.029563963,0.272233,0.6232352,-0.28548196,9.058911,3.7449992,0.062371723,-6.9789839,110.4071253,0.86101955,0.012047174,0.12693325
1782141439729,-0.31305,9.33195,4.40595,0.1989625,-0.18425,0.177375,-0.09559938,0.32594395,0.67683244,-0.2621259,9.06516,3.7315662,0.062371723,-6.9789839,110.4071253,0.86101955,0.012047174,0.12693325
1782141439737,-0.342,9.366,4.3969502,0.3064875,-0.2033625,0.18259999,-0.11544107,0.28616524,0.69888973,-0.2509145,9.068304,3.7246876,0.062371723,-6.9789839,110.4071253,0.86101955,0.012047174,0.12693325
1782141439746,-0.23895001,9.265051,4.4760003,0.3906375,-0.189475,0.2061125,-0.025286809,0.18079185,0.7880485,-0.2136632,9.084259,3.6879518,0.062371723,-6.9789839,110.4071253,0.86101955,0.012047174,0.12693325
1782141439770,-0.186,9.21,4.40595,0.5831375,-0.190575,0.23155,-0.37964487,0.002114296,0.42378545,-0.16335517,9.114886,3.6142147,0.062371723,-6.9789839,110.4071253,0.86101955,0.012047174,0.12693325
1782141439777,-0.70305,9.265051,3.9439502,0.60665,-0.18425,0.2380125,-0.55876374,0.13047695,0.37896228,-0.1442863,9.134574,3.564988,0.062371723,-6.9789839,110.4071253,0.86101955,0.012047174,0.12693325
1782141439795,-0.65805006,9.438001,3.6739502,0.6491375,-0.174625,0.2454375,-0.4135854,0.28997803,0.08934593,-0.13430034,9.145569,3.5370765,0.062371723,-6.9789839,110.4071253,0.86101955,0.012047174,0.12693325
1782141439802,-0.22695,9.366,3.2760003,0.6683875,-0.2256375,0.23155,-0.1396429,0.17223263,-0.13536477,-0.1001251,9.181253,3.4445536,0.062371723,-6.9789839,110.4071253,0.86101955,0.012047174,0.12693325
1782141439812,-0.006,9.213,3.11295,0.6556,-0.198,0.19965,0.04393746,-0.016768456,-0.20054722,-0.07456541,9.206725,3.376544,0.062371723,-6.9789839,110.4071253,0.86101955,0.012047174,0.12693325
1782141439818,0.12195001,9.129001,2.97705,0.644875,-0.1788875,0.18053749,0.04393746,-0.016768456,-0.20054722,-0.04850158,9.230649,3.3110664,0.062371723,-6.9789839,110.4071253,0.86101955,0.012047174,0.12693325
1782141439828,0.24195,9.094951,2.6800501,0.628925,-0.175725,0.1645875,0.38590986,-0.10628986,-0.9525349,-0.04850158,9.230649,3.3110664,0.062371723,-6.9789839,110.4071253,0.86101955,0.012047174,0.12693325
1782141439838,0.50295,9.427951,1.7770501,0.5247,-0.1436875,0.128425,0.5023103,0.14842224,-1.3948141,-0.0034016252,9.275341,3.1840878,0.062371723,-6.9789839,110.4071253,0.86101955,0.012047174,0.12693325
1782141439847,0.53595,9.555,1.8769501,0.383075,-0.0044,0.14533749,0.5089933,0.25106144,-1.2224678,0.013695056,9.292243,3.1343958,0.062371723,-6.9789839,110.4071253,0.86101955,0.012047174,0.12693325
1782141439858,0.21795002,9.61695,2.4379501,0.17985,0.0297,0.1571625,0.17186806,0.29782104,-0.61526084,0.03791297,9.31297,3.0720582,0.062371723,-6.9789839,110.4071253,0.86101955,0.012047174,0.12693325
1782141439869,-0.19995001,9.58905,3.0010502,0.139425,-1.375E-4,0.160325,-0.25755727,0.26335144,-0.03183937,0.057607263,9.325699,3.0328896,0.062371723,-6.9789839,110.4071253,0.86101955,0.012047174,0.12693325
1782141439877,-0.43695003,9.4470005,3.4339502,0.106425,-0.0543125,0.1890625,-0.50501144,0.11922455,0.40767217,0.06253858,9.327071,3.0285676,0.062371723,-6.9789839,110.4071253,0.86101955,0.012047174,0.12693325
1782141439895,-0.37500003,9.306001,3.63,0.0968,-0.1203125,0.241175,-0.3507412,-0.06414223,0.59531665,0.075419396,9.327886,3.0257676,0.062371723,-6.9789839,110.4071253,0.86101955,0.012047174,0.12693325
1782141439898,-0.15195,9.238951,3.5299501,0.11385,-0.1852125,0.2869625,-0.27849287,-0.08942413,0.50740194,0.09574118,9.327093,3.0276334,0.062371723,-6.9789839,110.4071253,0.86101955,0.012047174,0.12693325
1782141439908,0.16995001,9.12405,3.4320002,0.1340625,-0.2267375,0.3168,0.026071116,-0.20187378,0.4026699,0.12481588,9.32604,3.0298166,0.062371723,-6.9789839,110.4071253,0.86101955,0.012047174,0.12693325
1782141439918,0.48105,9.15795,3.2040002,0.1596375,-0.2193125,0.3125375,0.29455596,-0.16988373,0.18289065,0.18282676,9.328811,3.0183208,0.062371723,-6.9789839,110.4071253,0.86101955,0.012047174,0.12693325
1782141439928,0.65595,9.114,3.0649502,0.170225,-0.208725,0.3018125,0.5457282,-0.1838398,-0.064483166,0.18649405,9.327834,3.0211096,0.062371723,-6.9789839,110.4071253,0.86101955,0.012047174,0.12693325
1782141439939,0.85995007,9.1699505,2.5740001,0.1830125,-0.11715,0.259325,0.59056413,-0.16776466,-0.41011167,0.25074324,9.334624,2.9953794,0.062371723,-6.9789839,110.4071253,0.86101955,0.012047174,0.12693325
1782141439948,0.864,9.214951,2.8980002,0.1670625,0.01375,0.23485,0.56019795,-0.12760353,-0.06760144,0.28659752,9.34059,2.9734862,0.062371723,-6.9789839,110.4071253,0.86101955,0.012047174,0.12693325
1782141439959,0.76605004,9.261001,3.2899501,0.1596375,0.12979999,0.21133749,0.4233089,-0.08429146,0.33725238,0.32113633,9.342761,2.9631162,0.062371723,-6.9789839,110.4071253,0.86101955,0.012047174,0.12693325
1782141439968,0.70905006,9.19305,3.3000002,0.189475,0.137225,0.18053749,0.34881827,-0.15070438,0.34451532,0.35402504,9.3460045,2.9491088,0.062371723,-6.9789839,110.4071253,0.86101955,0.012047174,0.12693325
1782141439978,0.67800003,8.976001,3.1729503,0.2022625,0.138325,0.1709125,0.27941358,-0.4122553,0.30485797,0.3602318,9.343755,2.9554849,0.062371723,-6.9789839,110.4071253,0.86101955,0.012047174,0.12693325
1782141439988,0.99600005,8.892,3.4099503,0.203225,0.138325,0.1496,0.39562768,-0.3921728,0.48382688,0.38542235,9.348224,2.9381232,0.062371723,-6.9789839,110.4071253,0.86101955,0.012047174,0.12693325
1782141439997,1.12995,8.941951,3.28605,0.2404875,0.0499125,0.109175,0.7126847,-0.41036892,0.3653648,0.4065756,9.350549,2.9278562,0.062371723,-6.9789839,110.4071253,0.86101955,0.012047174,0.12693325
1782141440012,2.3779502,7.5150003,3.3960001,0.2905375,-0.050049998,-0.02915,1.9469485,-1.8476238,0.5105405,0.4310016,9.362624,2.8854597,0.062371723,-6.9789839,110.4071253,0.86101955,0.012047174,0.12693325
1782141440019,2.2699502,7.8790503,3.27795,0.2959,-0.11605,-0.12705,1.8321667,-1.4859343,0.40117812,0.43676353,9.361389,2.8886032,0.062371723,-6.9789839,110.4071253,0.86101955,0.012047174,0.12693325
1782141440028,2.019,8.307,3.24705,0.3053875,-0.2011625,-0.3089625,1.58831,-1.0656767,0.39436102,0.43555006,9.36882,2.8645933,0.062371723,-6.9789839,110.4071253,0.86101955,0.012047174,0.12693325
1782141440039,1.4989501,8.772,3.4150503,0.3320625,-0.2341625,-0.4761625,1.0863996,-0.6080551,0.5840125,0.4229837,9.376458,2.8413954,0.062371723,-6.9789839,110.4071253,0.86101955,0.012047174,0.12693325
1782141440049,1.01505,9.13095,3.5160003,0.386375,-0.2352625,-0.590975,0.6272353,-0.25439358,0.6990285,0.40156683,9.38281,2.823477,0.062371723,-6.9789839,110.4071253,0.86101955,0.012047174,0.12693325
1782141440062,0.80505,9.258,3.4750502,0.4225375,-0.240625,-0.626175,0.19692639,-0.008995056,0.5177126,0.3878148,9.385344,2.8169718,0.062371723,-6.9789839,110.4071253,0.86101955,0.012047174,0.12693325
1782141440073,0.14805001,9.5460005,3.07695,0.5267625,-0.2523125,-0.676225,-0.13668114,0.13535595,0.33303,0.31437984,9.402957,2.7669413,0.062371723,-6.9789839,110.4071253,0.86101955,0.012047174,0.12693325
1782141440080,-0.07305,9.62895,2.7799501,0.5757125,-0.2534125,-0.6697625,-0.29650745,0.20166492,0.087969065,0.25450844,9.418589,2.7195272,0.062371723,-6.9789839,110.4071253,0.86101955,0.012047174,0.12693325
1782141440102,-0.47595003,9.864,2.09505,0.6087125,-0.2597375,-0.6367625,-0.71848214,0.86978817,-0.6413269,0.1917717,9.436904,2.6605392,0.062371723,-6.9789839,110.4071253,0.86101955,0.012047174,0.12693325
1782141440112,-0.87600005,10.5730505,1.75995,0.55027497,-0.01815,-0.4984375,-0.9201563,1.0899763,-0.7380003,0.07115327,9.474968,2.5279112,0.062371723,-6.9789839,110.4071253,0.86101955,0.012047174,0.12693325
1782141440119,-1.41495,10.894051,1.69095,0.47465,0.0339625,-0.4059,-1.1076937,1.192522,-0.75999475,0.018693594,9.4904785,2.4699948,0.062371723,-6.9789839,110.4071253,0.86101955,0.012047174,0.12693325
1782141440135,-1.8169501,11.265,1.6710001,0.44055,0.07755,-0.346225,-2.4223452,2.4122763,-0.98371685,-0.0049734046,9.497155,2.4442613,0.062371723,-6.9789839,110.4071253,0.86101955,0.012047174,0.12693325
1782141440140,-1.2420001,10.441051,2.184,0.3810125,0.282975,-0.0345125,-1.1751816,0.9222212,-0.17350411,-0.05740268,9.513896,2.3775756,0.062371723,-6.9789839,110.4071253,0.86101955,0.012047174,0.12693325
1782141440150,0.22305001,8.904,2.4859502,0.3289,0.24255,0.13585,0.28827652,-0.6221657,0.15822387,-0.07038725,9.522607,2.3420951,0.062371723,-6.9789839,110.4071253,0.86101955,0.012047174,0.12693325
1782141440168,0.47595003,8.77005,2.352,0.2968625,0.154275,0.142175,0.31673127,-0.25416183,-0.44295096,-0.06522651,9.526166,2.3277264,0.062371723,-6.9789839,110.4071253,0.86101955,0.012047174,0.12693325
1782141440169,0.47895002,8.937,2.1070502,0.2288,-0.009625,0.030524999,0.31673127,-0.25416183,-0.44295096,-0.045681264,9.536162,2.286901,0.062371723,-6.9789839,110.4071253,0.86101955,0.012047174,0.12693325
1782141440180,-0.17205001,9.744,1.6860001,0.2149125,-0.0138875,0.00275,0.06067078,0.04539585,-0.5941274,-0.043720778,9.540654,2.2681274,0.062371723,-6.9789839,110.4071253,0.86101955,0.012047174,0.12693325
1782141440191,-0.045,9.411,2.12595,0.1766875,-0.0075625,-0.0015125,0.005638592,-0.14270496,-0.08641505,-0.050638594,9.553705,2.2123652,0.062371723,-6.9789839,110.4071253,0.86101955,0.012047174,0.12693325
1782141440200,0.076950006,9.352051,2.352,0.1628,-0.05115,-0.0015125,0.12477822,-0.20465755,0.15258193,-0.049681146,9.555348,2.2052777,0.062371723,-6.9789839,110.4071253,0.86101955,0.012047174,0.12693325
1782141440220,0.076950006,9.427951,2.4070501,0.1628,-0.0735625,-0.011,0.022821896,-0.013954163,0.20970154,-0.047828212,9.556708,2.199418,0.062371723,-6.9789839,110.4071253,0.86101955,0.012047174,0.12693325
1782141440221,0.043050002,9.486,2.4190502,0.1926375,-0.1607375,-0.0462,0.022821896,-0.013954163,0.20970154,-0.043821897,9.559955,2.1853485,0.062371723,-6.9789839,110.4071253,0.86101955,0.012047174,0.12693325
1782141440232,-0.10005,9.559951,2.15295,0.2160125,-0.2107875,-0.0567875,-0.053244118,-0.0058660507,-0.006531,-0.04542612,9.563438,2.1700194,0.062371723,-6.9789839,110.4071253,0.86101955,0.012047174,0.12693325
1782141440254,-0.124050006,9.5119505,1.9470001,0.2319625,-0.24915,-0.0578875,-0.14289132,-0.050653458,-0.25710356,-0.04742577,9.571056,2.136133,0.062371723,-6.9789839,110.4071253,0.86101955,0.012047174,0.12693325
1782141440262,-0.39000002,9.571951,1.6860001,0.221375,-0.2745875,-0.0493625,-0.3311524,-0.012598991,-0.38844538,-0.05514935,9.581231,2.089823,0.062371723,-6.9789839,110.4071253,0.86101955,0.012047174,0.12693325
1782141440285,-0.35595003,9.603001,1.71,0.2074875,-0.24695,-0.0226875,-0.3278634,0.019939423,-0.34468925,-0.061991762,9.587749,2.0595267,0.062371723,-6.9789839,110.4071253,0.86101955,0.012047174,0.12693325
1782141440305,-0.32700002,9.64095,1.5850501,0.18205,-0.2182125,0.045375,-0.5155558,-0.036476135,-0.3565464,-0.07049422,9.608427,1.9604964,0.062371723,-6.9789839,110.4071253,0.86101955,0.012047174,0.12693325
1782141440326,-0.49005002,9.60105,1.434,0.1607375,-0.11605,0.0741125,0.010007225,0.15524292,-0.3758881,-0.047057226,9.615758,1.9249382,0.062371723,-6.9789839,110.4071253,0.86101955,0.012047174,0.12693325
1782141440336,-0.37005,9.498,1.42005,0.1628,-0.043725,0.0422125,-0.33115885,-0.12523651,-0.467332,-0.03845482,9.62095,1.8990158,0.062371723,-6.9789839,110.4071253,0.86101955,0.012047174,0.12693325
1782141440351,-0.35595003,9.604951,1.7530501,0.1533125,-0.0053625,0.027224999,-0.005734194,0.2619753,0.29894948,-0.041215807,9.626025,1.8730507,0.062371723,-6.9789839,110.4071253,0.86101955,0.012047174,0.12693325
1782141440361,0.0,10.017,1.7740501,0.1255375,0.038225,0.044275,0.03784633,0.38844204,-0.08600843,-0.03986118,9.627171,1.8671898,0.062371723,-6.9789839,110.4071253,0.86101955,0.012047174,0.12693325
1782141440365,-0.010950001,9.95505,1.76205,0.1340625,0.004125,0.036849998,0.023828467,0.32369995,-0.08355856,-0.03784633,9.628558,1.8600585,0.062371723,-6.9789839,110.4071253,0.86101955,0.012047174,0.12693325
1782141440388,0.12195001,9.826051,1.8220501,0.14685,0.0499125,0.0229625,0.032123312,0.23646069,-0.08377802,-0.03318126,9.632861,1.8377374,0.062371723,-6.9789839,110.4071253,0.86101955,0.012047174,0.12693325
1782141440398,-0.07305,9.900001,1.64505,0.139425,0.1159125,0.00495,-0.04165416,0.26058197,-0.1580112,-0.030982584,9.639107,1.8047347,0.062371723,-6.9789839,110.4071253,0.86101955,0.012047174,0.12693325
1782141440421,-0.12795001,9.871051,1.7050501,0.11605,0.153175,0.00385,-0.17264202,0.23982525,-0.028012633,-0.034186054,9.642039,1.7889415,0.062371723,-6.9789839,110.4071253,0.86101955,0.012047174,0.12693325
1782141440432,-0.24795002,9.86205,2.184,0.0776875,0.18727499,0.022,-0.1913832,0.21425438,0.42694652,-0.054757133,9.647594,1.7582127,0.062371723,-6.9789839,110.4071253,0.86101955,0.012047174,0.12693325
1782141440451,-0.18405001,9.967051,1.932,0.0776875,0.1648625,0.0539,-0.14033103,0.21659184,0.07852733,-0.05692834,9.648022,1.7557927,0.062371723,-6.9789839,110.4071253,0.86101955,0.012047174,0.12693325
1782141440452,-0.19605,9.865951,1.8270001,0.105325,0.0732875,0.0539,-0.14033103,0.21659184,0.07852733,-0.055718966,9.649359,1.7484728,0.062371723,-6.9789839,110.4071253,0.86101955,0.012047174,0.12693325
1782141440463,-0.066,9.79695,1.9399501,0.1192125,0.0903375,0.0559625,-0.013922896,0.14604282,0.19992721,-0.05398352,9.650124,1.7443069,0.062371723,-6.9789839,110.4071253,0.86101955,0.012047174,0.12693325
1782141440470,-0.09,9.843,1.9969501,0.132,0.0988625,0.0592625,-0.041487902,0.19038391,0.26633394,-0.05030103,9.65178,1.7352275,0.062371723,-6.9789839,110.4071253,0.86101955,0.012047174,0.12693325
1782141440499,-0.09705,9.852,2.052,0.1351625,0.0999625,0.062425,-0.057627447,0.19201374,0.3928324,-0.0485121,9.6526165,1.7306162,0.062371723,-6.9789839,110.4071253,0.86101955,0.012047174,0.12693325
1782141440516,-0.009000001,9.76605,1.6999501,0.236225,0.0851125,0.077275,0.018659692,0.07346153,-0.081028104,-0.02459756,9.662203,1.6767824,0.062371723,-6.9789839,110.4071253,0.86101955,0.012047174,0.12693325
1782141440516,0.0,9.73995,1.57095,0.236225,0.0851125,0.077275,0.018659692,0.07346153,-0.081028104,-0.02459756,9.662203,1.6767824,0.062371723,-6.9789839,110.4071253,0.86101955,0.012047174,0.12693325
1782141440527,-0.109050006,9.77295,1.6639501,0.2256375,0.1307625,0.060225,-0.0898055,0.10144997,0.04157269,-0.020156654,9.669678,1.6331956,0.062371723,-6.9789839,110.4071253,0.86101955,0.012047174,0.12693325
1782141440541,0.079050004,9.96,1.44105,0.1969,0.1659625,0.0719125,0.09273542,0.28503704,-0.16060781,-0.016520927,9.673094,1.6128747,0.062371723,-6.9789839,110.4071253,0.86101955,0.012047174,0.12693325
1782141440547,0.06705,9.847051,1.3789501,0.18727499,0.04675,0.0507375,0.07508601,0.16822529,-0.1992315,-0.010803718,9.676955,1.5895956,0.062371723,-6.9789839,110.4071253,0.86101955,0.012047174,0.12693325
1782141440571,0.036000002,9.81105,1.485,0.16499999,0.0616,0.0347875,-0.03369328,0.22772026,-0.033435106,-0.005340192,9.680468,1.5680934,0.062371723,-6.9789839,110.4071253,0.86101955,0.012047174,0.12693325
1782141440579,-0.016050002,9.901951,1.5160501,0.093637496,0.0424875,0.055,-0.018676843,0.21597767,-0.017679214,4.3371523E-4,9.685174,1.5387756,0.062371723,-6.9789839,110.4071253,0.86101955,0.012047174,0.12693325
1782141440589,0.012,9.81105,1.4940001,0.075625,0.0265375,0.06875,-2.0400621E-5,0.123155594,-0.027488828,0.012020401,9.687895,1.5214889,0.062371723,-6.9789839,110.4071253,0.86101955,0.012047174,0.12693325
1782141440604,0.0019500001,9.780001,1.554,0.0691625,0.0265375,0.0730125,-0.027213119,0.07432461,0.037865996,0.012020401,9.687895,1.5214889,0.062371723,-6.9789839,110.4071253,0.86101955,0.012047174,0.12693325
1782141440613,-0.00405,9.783,1.5799501,0.058575,0.021175,0.07095,-0.027213119,0.07432461,0.037865996,0.018213117,9.688725,1.516134,0.062371723,-6.9789839,110.4071253,0.86101955,0.012047174,0.12693325
1782141440619,0.03795,9.78495,1.5469501,0.057475,0.0116875,0.06875,0.009887105,0.095090866,0.038223624,0.021210253,9.689025,1.5141771,0.062371723,-6.9789839,110.4071253,0.86101955,0.012047174,0.12693325
1782141440639,-0.022950001,9.73995,1.4650501,0.0554125,0.01265,0.06875,0.035514146,0.09577465,0.34153044,0.028062897,9.689859,1.5087265,0.062371723,-6.9789839,110.4071253,0.86101955,0.012047174,0.12693325
1782141440640,-0.279,9.568951,1.30305,0.041525,0.138325,0.076175,0.19707508,0.2380352,0.35124552,0.037974928,9.690915,1.5017046,0.062371723,-6.9789839,110.4071253,0.86101955,0.012047174,0.12693325
1782141440649,0.14400001,9.913951,1.4650501,0.057475,0.01265,0.06765,0.09789234,0.22225189,-0.031353474,0.042099312,9.691202,1.4997406,0.062371723,-6.9789839,110.4071253,0.86101955,0.012047174,0.12693325
1782141440673,0.16800001,9.7900505,1.45605,0.0680625,-1.375E-4,0.0539,0.011799511,0.06458187,0.006823659,0.050064594,9.692278,1.4925258,0.062371723,-6.9789839,110.4071253,0.86101955,0.012047174,0.12693325
1782141440684,-0.01305,9.843,1.45095,0.0606375,0.0254375,0.0325875,-0.07338347,0.14801979,-0.023537993,0.059642863,9.694458,1.477946,0.062371723,-6.9789839,110.4071253,0.86101955,0.012047174,0.12693325
1782141440704,0.052950002,9.795,1.4250001,0.026675,-0.0053625,0.0517,-0.06055702,0.13703442,-0.036177754,0.06250702,9.695916,1.4682279,0.062371723,-6.9789839,110.4071253,0.86101955,0.012047174,0.12693325
1782141440712,0.120000005,9.7560005,1.422,0.0224125,-0.008525,0.0507375,0.03765922,0.076122284,-0.01584363,0.07034078,9.696828,1.4618437,0.062371723,-6.9789839,110.4071253,0.86101955,0.012047174,0.12693325
1782141440722,0.13905,9.72,1.4580001,0.01485,-0.0044,0.0485375,0.0591143,0.022639275,1.9133091E-4,0.076624684,9.697272,1.4585762,0.062371723,-6.9789839,110.4071253,0.86101955,0.012047174,0.12693325
1782141440739,0.14595,9.703951,1.4770501,0.01485,9.625E-4,0.043175,0.09886267,-0.020298004,0.053105116,0.07993571,9.697361,1.4578087,0.062371723,-6.9789839,110.4071253,0.86101955,0.012047174,0.12693325
1782141440749,0.18705001,9.72795,1.52505,0.0064625,0.0339625,0.03575,0.092207536,0.030810356,0.066666126,0.092087336,9.697248,1.457845,0.062371723,-6.9789839,110.4071253,0.86101955,0.012047174,0.12693325
1782141440755,0.15795001,9.783,1.5660001,-0.0020625,0.0435875,0.029424999,0.05932393,0.08618164,0.105725884,0.096847095,9.697,1.4591876,0.062371723,-6.9789839,110.4071253,0.86101955,0.012047174,0.12693325
1782141440765,0.15795001,9.802051,1.5949501,-0.0020625,0.04675,0.022,0.05647321,0.10567474,0.13193858,0.10014994,9.696579,1.4617612,0.062371723,-6.9789839,110.4071253,0.86101955,0.012047174,0.12693325
1782141440790,0.120000005,9.77505,1.5780001,0.0042625,0.0435875,0.013475,-0.0073098615,0.0700655,0.09558463,0.102521345,9.69621,1.4640356,0.062371723,-6.9789839,110.4071253,0.86101955,0.012047174,0.12693325
1782141440801,0.031050002,9.72,1.4749501,0.023375,0.0350625,0.00495,-0.06999425,0.023935318,0.00985527,0.10104425,9.696065,1.4650948,0.062371723,-6.9789839,110.4071253,0.86101955,0.012047174,0.12693325
1782141440820,0.0139500005,9.696,1.37205,0.0298375,0.0286,0.00605,-0.092869155,-0.037244797,-0.123538375,0.09998393,9.696362,1.463205,0.062371723,-6.9789839,110.4071253,0.86101955,0.012047174,0.12693325
1782141440821,0.0049500004,9.660001,1.33395,0.0276375,0.0286,0.012375,-0.09770225,-0.046957016,-0.19380367,0.09781916,9.697246,1.4574884,0.062371723,-6.9789839,110.4071253,0.86101955,0.012047174,0.12693325
1782141440831,-0.016050002,9.61995,1.2040501,0.026675,0.0276375,0.0155375,-0.11260747,-0.07835674,-0.24644458,0.09770225,9.697957,1.4527538,0.062371723,-6.9789839,110.4071253,0.86101955,0.012047174,0.12693325
1782141440837,-0.26700002,9.438001,0.85005003,0.01815,0.037125,0.0209,-0.36160898,-0.26151562,-0.5924652,0.09604221,9.698879,1.4466928,0.062371723,-6.9789839,110.4071253,0.86101955,0.012047174,0.12693325
1782141440856,0.15795001,9.688951,1.386,0.008525,0.0584375,0.027224999,-0.20093207,-0.17377281,-0.23343861,0.09398206,9.699823,1.4404887,0.062371723,-6.9789839,110.4071253,0.86101955,0.012047174,0.12693325
1782141440857,0.13605,9.77295,1.09695,-0.0191125,0.01595,0.0389125,-0.04147791,0.06619644,-0.5677358,0.098477915,9.701804,1.4267858,0.062371723,-6.9789839,110.4071253,0.86101955,0.012047174,0.12693325
1782141440870,0.10305001,9.562051,0.82800007,-0.0276375,0.0339625,0.029424999,-0.013975769,-0.018594742,-0.6363454,0.09992577,9.702595,1.4212954,0.062371723,-6.9789839,110.4071253,0.86101955,0.012047174,0.12693325
1782141440886,0.09105001,9.558001,0.95505005,-0.0606375,0.0732875,0.0229625,-0.016444497,-0.07615948,-0.43129867,0.1019377,9.703144,1.4173955,0.062371723,-6.9789839,110.4071253,0.86101955,0.012047174,0.12693325
1782141440887,0.08595,9.627001,0.98595005,-0.104225,0.071225,0.011275,-0.011054866,-0.08509731,-0.41880918,0.1023945,9.70316,1.4172487,0.062371723,-6.9789839,110.4071253,0.86101955,0.012047174,0.12693325
1782141440897,0.13905,9.658051,1.149,-0.139425,0.072325,0.00385,0.037014112,-0.043904305,-0.27649987,0.1017375,9.701535,1.4283675,0.062371723,-6.9789839,110.4071253,0.86101955,0.012047174,0.12693325
1782141440907,0.12195001,9.675,1.24695,-0.1659625,0.088275,0.00275,0.020134479,-0.025298119,-0.18979192,0.10214988,9.701175,1.4307979,0.062371723,-6.9789839,110.4071253,0.86101955,0.012047174,0.12693325
1782141440930,0.109950006,9.691951,1.22595,-0.2000625,0.1307625,-0.011,-0.07500948,-0.024830818,-0.32035065,0.09600948,9.696832,1.4603508,0.062371723,-6.9789839,110.4071253,0.86101955,0.012047174,0.12693325
1782141440930,0.10305001,9.663,1.2090001,-0.2000625,0.1307625,-0.011,-0.07500948,-0.024830818,-0.32035065,0.09600948,9.696832,1.4603508,0.062371723,-6.9789839,110.4071253,0.86101955,0.012047174,0.12693325
1782141440937,-0.025050001,9.66495,1.1370001,-0.21065,0.150975,-0.005775,-0.11563306,-0.030003548,-0.33611846,0.093330905,9.695949,1.4663749,0.062371723,-6.9789839,110.4071253,0.86101955,0.012047174,0.12693325
1782141440955,-0.034950003,9.670051,1.14705,-0.22659999,0.168025,0.0017875,-0.1243834,0.014940262,-0.224715,0.09058306,9.694954,1.4731185,0.062371723,-6.9789839,110.4071253,0.86101955,0.012047174,0.12693325
1782141440957,-0.06105,9.703951,1.3480501,-0.27981248,0.1978625,0.0155375,-0.1405064,0.014555931,-0.16181791,0.082383394,9.691111,1.4986651,0.062371723,-6.9789839,110.4071253,0.86101955,0.012047174,0.12693325
1782141440967,0.036000002,9.771001,1.4989501,-0.3128125,0.1947,0.030524999,-0.04127496,0.08595276,-0.038665175,0.0777683,9.687376,1.5228596,0.062371723,-6.9789839,110.4071253,0.86101955,0.012047174,0.12693325
1782141440990,0.08805001,9.79695,1.52295,-0.34485,0.1797125,0.045375,-0.015103385,0.18303204,-0.088938355,0.07790449,9.682545,1.5532717,0.062371723,-6.9789839,110.4071253,0.86101955,0.012047174,0.12693325
1782141440992,0.061950002,9.77805,1.4940001,-0.4054875,0.202125,0.060225,-0.015103385,0.18303204,-0.088938355,0.08215339,9.670918,1.6238884,0.062371723,-6.9789839,110.4071253,0.86101955,0.012047174,0.12693325
1782141440997,0.0019500001,9.924001,1.7070001,-0.4266625,0.216975,0.06765,-0.08092877,0.25656605,0.06254184,0.0819225,9.670988,1.6234722,0.062371723,-6.9789839,110.4071253,0.86101955,0.012047174,0.12693325
1782141441008,-0.025050001,9.880951,1.9920001,-0.4607625,0.251075,0.0837375,-0.11019292,0.22164345,0.30056906,0.08390228,9.663542,1.6671307,0.062371723,-6.9789839,110.4071253,0.86101955,0.012047174,0.12693325
1782141441018,-0.040050004,9.8230505,2.2339501,-0.4714875,0.2723875,0.094325,-0.12811407,0.17294312,0.49094152,0.08886808,9.650669,1.7398487,0.062371723,-6.9789839,110.4071253,0.86101955,0.012047174,0.12693325
1782141441041,0.025950002,9.80895,2.3800502,-0.447975,0.27981248,0.0963875,0.04286342,0.21329975,0.5771884,0.08945143,9.645322,1.7692233,0.062371723,-6.9789839,110.4071253,0.86101955,0.012047174,0.12693325
1782141441053,0.19395001,9.8539505,2.3830502,-0.30855,0.27555,0.086899996,0.10161116,0.20922089,0.52645624,0.101338856,9.62373,1.8825439,0.062371723,-6.9789839,110.4071253,0.86101955,0.012047174,0.12693325
1782141441058,0.14595,9.877951,2.3080502,-0.2809125,0.2701875,0.076175,0.04091551,0.26092625,0.39175475,0.10360154,9.620193,1.9004087,0.062371723,-6.9789839,110.4071253,0.86101955,0.012047174,0.12693325
1782141441078,0.108,9.8880005,2.2770002,-0.2277,0.2457125,0.0592625,-0.086954795,0.37314606,0.46671605,0.10503449,9.617024,1.9162954,0.062371723,-6.9789839,110.4071253,0.86101955,0.012047174,0.12693325
1782141441079,0.06705,9.92205,2.35905,-0.2223375,0.235125,0.060225,-0.086954795,0.37314606,0.46671605,0.1060048,9.605905,1.9712341,0.062371723,-6.9789839,110.4071253,0.86101955,0.012047174,0.12693325
1782141441088,-0.069000006,9.77295,2.2750502,-0.221375,0.22659999,0.0581625,-0.1742461,0.17241764,0.2777809,0.106034316,9.603148,1.9846085,0.062371723,-6.9789839,110.4071253,0.86101955,0.012047174,0.12693325
1782141441107,0.112050004,9.972,2.3470502,-0.221375,0.2297625,0.0474375,-0.1529473,0.47983456,0.8580904,0.10524609,9.600533,1.9972693,0.062371723,-6.9789839,110.4071253,0.86101955,0.012047174,0.12693325
1782141441108,-0.049050003,10.07205,2.8950002,-0.2171125,0.17875,0.0485375,-0.07517497,0.39164448,0.6676822,0.10412498,9.589356,2.050318,0.062371723,-6.9789839,110.4071253,0.86101955,0.012047174,0.12693325
1782141441119,0.18405001,9.89505,2.73705,-0.154275,0.0925375,0.046475,0.07605024,0.3104601,0.66476154,0.10618571,9.586927,2.0615451,0.062371723,-6.9789839,110.4071253,0.86101955,0.012047174,0.12693325
1782141441137,0.16005,9.79695,2.7469501,-0.1106875,0.0732875,0.00605,0.057684124,0.20865345,0.5711925,0.10815029,9.581153,2.0881073,0.062371723,-6.9789839,110.4071253,0.86101955,0.012047174,0.12693325
1782141441138,0.165,9.78705,2.67195,-0.0372625,0.0510125,-0.0100375,0.057684124,0.20865345,0.5711925,0.10731588,9.578397,2.1007576,0.062371723,-6.9789839,110.4071253,0.86101955,0.012047174,0.12693325
1782141441149,0.15300001,9.852,2.3830502,0.01705,0.04455,-0.0237875,0.047261752,0.27492428,0.2761941,0.10573826,9.577076,2.106856,0.062371723,-6.9789839,110.4071253,0.86101955,0.012047174,0.12693325
1782141441159,0.15795001,9.877951,2.2339501,0.0457875,0.0424875,-0.0397375,0.05595094,0.30032253,0.1294241,0.10397096,9.577218,2.1062942,0.062371723,-6.9789839,110.4071253,0.86101955,0.012047174,0.12693325
1782141441168,0.120000005,9.876,2.15805,0.041525,0.038225,-0.0471625,0.02262538,0.2974491,0.057512045,0.09989596,9.578075,2.1025932,0.062371723,-6.9789839,110.4071253,0.86101955,0.012047174,0.12693325
1782141441187,0.072000004,9.883051,2.2339501,0.009625,0.023375,-0.0248875,0.0032513216,0.3140297,0.0749712,0.09003975,9.579033,2.0986698,0.062371723,-6.9789839,110.4071253,0.86101955,0.012047174,0.12693325
1782141441188,0.120000005,9.856951,2.3440502,0.009625,0.023375,-0.0248875,0.031133972,0.2780819,0.24458146,0.09003975,9.579033,2.0986698,0.062371723,-6.9789839,110.4071253,0.86101955,0.012047174,0.12693325
1782141441201,0.25605002,9.780001,2.301,0.01485,0.0083875,-0.011,0.06758405,0.25227547,0.21090746,0.08920272,9.578596,2.100701,0.062371723,-6.9789839,110.4071253,0.86101955,0.012047174,0.12693325
1782141441208,0.19605,9.783,2.2030501,0.026675,0.01595,-0.014162499,0.105724126,0.20427036,0.10300493,0.09025807,9.578559,2.100826,0.062371723,-6.9789839,110.4071253,0.86101955,0.012047174,0.12693325
1782141441222,0.112050004,9.807,2.196,0.025575,0.0243375,-0.020624999,0.007880986,0.24001598,0.17607594,0.09032588,9.57873,2.1000452,0.062371723,-6.9789839,110.4071253,0.86101955,0.012047174,0.12693325
1782141441229,0.18900001,9.696,2.29605,0.0309375,0.0573375,-0.0015125,0.10112854,0.11707878,0.19677877,0.08747809,9.578969,2.0990753,0.062371723,-6.9789839,110.4071253,0.86101955,0.012047174,0.12693325
1782141441239,0.132,9.735001,2.2459502,0.0435875,0.069025,-0.0015125,0.044351526,0.15575886,0.1481297,0.08764847,9.579242,2.0978205,0.062371723,-6.9789839,110.4071253,0.86101955,0.012047174,0.12693325
1782141441258,0.132,9.72,2.2699502,0.042625,0.0765875,-4.125E-4,0.04876802,0.1262312,0.12675524,0.08764847,9.579242,2.0978205,0.062371723,-6.9789839,110.4071253,0.86101955,0.012047174,0.12693325
1782141441259,0.15105,9.696,2.229,0.0446875,0.08085,0.00385,0.04876802,0.1262312,0.12675524,0.08728198,9.57982,2.0951948,0.062371723,-6.9789839,110.4071253,0.86101955,0.012047174,0.12693325
1782141441270,0.079050004,9.679951,2.2750502,0.0521125,0.070125,-4.125E-4,-4.2713434E-4,0.13276291,0.17850304,0.08637714,9.580188,2.093547,0.062371723,-6.9789839,110.4071253,0.86101955,0.012047174,0.12693325
1782141441290,0.10305001,9.682051,2.25795,0.0691625,0.0573375,-0.002475,0.061029784,0.10464859,0.10931516,0.08434972,9.581452,2.087834,0.062371723,-6.9789839,110.4071253,0.86101955,0.012047174,0.12693325
1782141441291,0.132,9.696,2.22705,0.089375,0.0254375,-4.125E-4,0.061029784,0.10464859,0.10931516,0.08492022,9.582352,2.083685,0.062371723,-6.9789839,110.4071253,0.86101955,0.012047174,0.12693325
1782141441304,0.18195,9.684,2.1720002,0.089375,0.0254375,-4.125E-4,0.08871788,0.079013824,0.057956934,0.08492022,9.582352,2.083685,0.062371723,-6.9789839,110.4071253,0.86101955,0.012047174,0.12693325
1782141441309,0.17505,9.663,2.1340501,0.1010625,0.0105875,-0.014162499,0.09098702,0.066952705,0.050158978,0.08601298,9.585998,2.066791,0.062371723,-6.9789839,110.4071253,0.86101955,0.012047174,0.12693325
1782141441320,0.156,9.627001,1.9969501,0.100099996,0.007425,-0.0259875,0.06960679,0.03847027,-0.05805111,0.08667904,9.587279,2.0608172,0.062371723,-6.9789839,110.4071253,0.86101955,0.012047174,0.12693325
1782141441330,0.124050006,9.639001,1.9729501,0.090475,9.625E-4,-0.0334125,0.03947027,0.048059464,-0.07084119,0.084048405,9.590703,2.0449324,0.062371723,-6.9789839,110.4071253,0.86101955,0.012047174,0.12693325
1782141441340,0.105000004,9.660001,1.9900501,0.072325,-0.0033,-0.037675,0.023048282,0.06704998,-0.04439187,0.083456285,9.592035,2.0386977,0.062371723,-6.9789839,110.4071253,0.86101955,0.012047174,0.12693325
1782141441358,0.10005,9.667951,2.019,0.0638,-0.0053625,-0.038775,0.027442425,0.09440899,0.13994169,0.08195172,9.592951,2.034442,0.062371723,-6.9789839,110.4071253,0.86101955,0.012047174,0.12693325
1782141441359,0.120000005,9.703951,2.1000001,0.0532125,-0.010725,-0.0408375,0.027442425,0.09440899,0.13994169,0.07755758,9.594542,2.0271084,0.062371723,-6.9789839,110.4071253,0.86101955,0.012047174,0.12693325
1782141441370,0.061950002,9.736951,2.2050002,0.057475,-0.0309375,-0.0334125,-0.010886397,0.14150524,0.18200612,0.074167356,9.59512,2.0244863,0.062371723,-6.9789839,110.4071253,0.86101955,0.012047174,0.12693325
1782141441390,0.09105001,9.73005,2.16,0.0638,-0.0479875,-0.0163625,0.058160566,0.07062054,0.09995055,0.07197598,9.595839,2.0211623,0.062371723,-6.9789839,110.4071253,0.86101955,0.012047174,0.12693325
1782141441391,0.12900001,9.682051,2.14995,0.0765875,-0.060775,-0.003575,0.058160566,0.07062054,0.09995055,0.07383943,9.59733,2.0139995,0.062371723,-6.9789839,110.4071253,0.86101955,0.012047174,0.12693325
1782141441398,0.13395001,9.651,2.0400002,0.08305,-0.0639375,-0.003575,0.05886408,0.05288315,0.029804945,0.07383943,9.59733,2.0139995,0.062371723,-6.9789839,110.4071253,0.86101955,0.012047174,0.12693325
1782141441411,0.06705,9.649051,1.932,0.099,-0.05115,-0.0089375,-0.00960274,0.047742844,-0.0628463,0.07682897,9.601095,1.99586,0.062371723,-6.9789839,110.4071253,0.86101955,0.012047174,0.12693325
1782141441420,0.0,9.637051,1.8610501,0.099,-0.0394625,-0.0121,-0.07386545,0.032853127,-0.119946,0.07537264,9.602737,1.9880011,0.062371723,-6.9789839,110.4071253,0.86101955,0.012047174,0.12693325
1782141441434,0.0049500004,9.64395,1.8100501,0.0979,-0.0352,-0.0132,-0.06735068,0.038134575,-0.16314149,0.07230068,9.605816,1.9731916,0.062371723,-6.9789839,110.4071253,0.86101955,0.012047174,0.12693325
1782141441441,0.01695,9.63405,1.8100501,0.0798875,-0.0138875,-0.0100375,-0.012427166,2.8419495E-4,-0.116915464,0.0711144,9.60732,1.9658991,0.062371723,-6.9789839,110.4071253,0.86101955,0.012047174,0.12693325
1782141441451,0.079050004,9.61995,1.91805,0.0702625,0.0020625,-0.0121,0.01055602,0.00831604,-0.026732683,0.06831804,9.611534,1.9452877,0.062371723,-6.9789839,110.4071253,0.91614705,0.014508593,0.06934442
1782141441479,0.06705,9.63195,2.0329502,0.073425,0.0116875,-0.0132,-0.06730433,0.03862095,0.0704484,0.067276135,9.612601,1.9400399,0.062371723,-6.9789839,110.4071253,0.91614705,0.014508593,0.06934442
1782141441487,0.043050002,9.62205,2.0350502,0.1010625,-0.0213125,-0.0067375,-0.10004153,0.0348711,0.012278438,0.059991527,9.616129,1.9227216,0.062371723,-6.9789839,110.4071253,0.91614705,0.014508593,0.06934442
1782141441506,-0.03705,9.682051,1.83405,0.099,-0.026675,0.00605,-0.0884595,0.01975441,-0.048971415,0.056444358,9.61969,1.904937,0.062371723,-6.9789839,110.4071253,0.91614705,0.014508593,0.06934442
1782141441507,-0.057000004,9.687,1.8319501,0.099,-0.026675,0.00605,-0.116701454,0.08306217,-0.08884227,0.055651452,9.620889,1.8988924,0.062371723,-6.9789839,110.4071253,0.91614705,0.014508593,0.06934442
1782141441518,-0.066,9.691951,1.7890501,0.095837496,-0.0298375,0.0092124995,-0.12045611,0.06865692,-0.09764457,0.05490911,9.622141,1.8925632,0.062371723,-6.9789839,110.4071253,0.91614705,0.014508593,0.06934442
1782141441527,-0.049050003,9.660001,1.8079501,0.08195,-0.026675,0.0209,-0.10305573,0.034706116,-0.06853354,0.054202717,9.624298,1.8815783,0.062371723,-6.9789839,110.4071253,0.91614705,0.014508593,0.06934442
1782141441537,0.033,9.670051,1.8370501,0.074525,-0.0235125,0.0240625,-0.022607028,0.04302311,-0.030474544,0.054501697,9.626227,1.8716718,0.062371723,-6.9789839,110.4071253,0.91614705,0.014508593,0.06934442
1782141441559,0.13395001,9.712951,1.7670001,0.0765875,-0.025575,0.0262625,0.116601914,0.03703499,-0.13704646,0.057185825,9.627896,1.8629947,0.062371723,-6.9789839,110.4071253,0.91614705,0.014508593,0.06934442
1782141441560,0.17205001,9.684,1.7580001,0.073425,-0.0331375,0.0144375,0.116601914,0.03703499,-0.13704646,0.06534809,9.630916,1.8470465,0.062371723,-6.9789839,110.4071253,0.91614705,0.014508593,0.06934442
1782141441569,0.18705001,9.688951,1.64295,0.0671,-0.0320375,0.0070125,0.11646666,0.055662155,-0.19149065,0.068417996,9.632166,1.8404105,0.062371723,-6.9789839,110.4071253,0.91614705,0.014508593,0.06934442
1782141441578,0.108,9.67695,1.7070001,0.0446875,-0.01705,-0.002475,0.035691433,0.04189396,-0.1180619,0.07181319,9.634319,1.8289702,0.062371723,-6.9789839,110.4071253,0.91614705,0.014508593,0.06934442
1782141441591,0.081,9.694051,1.7700001,0.0446875,-0.01705,-0.002475,0.035691433,0.04189396,-0.1180619,0.07181319,9.634319,1.8289702,0.062371723,-6.9789839,110.4071253,0.91614705,0.014508593,0.06934442
1782141441598,0.024,9.658051,1.8460501,0.01705,-0.0033,-0.003575,-0.045793083,0.021850586,0.026938438,0.0705138,9.636086,1.8196868,0.062371723,-6.9789839,110.4071253,0.91614705,0.014508593,0.06934442
1782141441626,0.064950004,9.687,1.8919501,0.0138875,-0.0033,0.0017875,0.03309475,0.11047077,0.057718635,0.06934505,9.636295,1.818623,0.062371723,-6.9789839,110.4071253,0.91614705,0.014508593,0.06934442
1782141441633,0.043050002,9.708,1.8610501,0.024475,0.01485,0.011275,-0.029502902,0.07115555,0.045459628,0.07242139,9.636677,1.8164818,0.062371723,-6.9789839,110.4071253,0.91614705,0.014508593,0.06934442
1782141441643,-0.016050002,9.684,1.8079501,0.0341,0.020075,0.0103124995,-0.08781439,0.046536446,-0.0043822527,0.072490945,9.63711,1.8141836,0.062371723,-6.9789839,110.4071253,0.91614705,0.014508593,0.06934442
1782141441660,-0.054,9.670051,1.75995,0.0276375,0.0413875,0.0229625,-0.0064800307,0.089476585,0.08707845,0.07176439,9.637464,1.8123324,0.062371723,-6.9789839,110.4071253,0.91614705,0.014508593,0.06934442
1782141441664,0.021000002,9.723001,1.7770501,0.0276375,0.0413875,0.0229625,-0.050641928,0.08418846,-0.028102517,0.071430035,9.6384735,1.8069717,0.062371723,-6.9789839,110.4071253,0.91614705,0.014508593,0.06934442
1782141441673,-0.033,9.708,1.8030001,0.0213125,0.0191125,0.0177375,-0.10448323,0.068585396,0.0010652542,0.072628304,9.639378,1.8020904,0.062371723,-6.9789839,110.4071253,0.91614705,0.014508593,0.06934442
1782141441690,-0.057000004,9.712951,1.8390001,0.01595,0.021175,0.0166375,-0.1595926,0.14038563,0.07211006,0.07148323,9.639415,1.8019348,0.062371723,-6.9789839,110.4071253,0.91614705,0.014508593,0.06934442
1782141441693,-0.08505,9.78495,1.9420501,0.0011,0.0094875,0.0209,-0.15435968,0.14548302,0.140311,0.069592595,9.639615,1.80094,0.062371723,-6.9789839,110.4071253,0.91614705,0.014508593,0.06934442
1782141441703,-0.022950001,9.8230505,2.0070002,-0.0020625,-0.0127875,0.028324999,-0.0930976,0.18405151,0.2027868,0.070808396,9.639217,1.8030198,0.062371723,-6.9789839,110.4071253,0.91614705,0.014508593,0.06934442
1782141441713,0.048,9.74895,1.9800001,0.0022,-0.0341,0.0389125,-0.025871582,0.11043739,0.17333996,0.0718468,9.638748,1.8054847,0.062371723,-6.9789839,110.4071253,0.91614705,0.014508593,0.06934442
1782141441723,0.16005,9.783,2.0070002,0.009625,-0.041525,0.0400125,0.08040714,0.14485168,0.19863856,0.07662556,9.638334,1.8074961,0.062371723,-6.9789839,110.4071253,0.91614705,0.014508593,0.06934442
1782141441741,0.13605,9.759001,1.9540501,0.01485,-0.041525,0.03795,0.02310057,0.10567093,0.067941904,0.086849436,9.6383295,1.8070582,0.062371723,-6.9789839,110.4071253,0.91614705,0.014508593,0.06934442
1782141441743,0.12900001,9.76305,1.9060501,0.0372625,-0.0479875,0.0240625,0.02310057,0.10567093,0.067941904,0.086849436,9.6383295,1.8070582,0.062371723,-6.9789839,110.4071253,0.91614705,0.014508593,0.06934442
1782141441753,0.069000006,9.72,1.7530501,0.047849998,-0.0372625,0.0177375,-0.020732291,0.080747604,-0.048941493,0.0897323,9.639253,1.8019916,0.062371723,-6.9789839,110.4071253,0.91614705,0.014508593,0.06934442
1782141441774,0.031050002,9.74895,1.6690501,0.040425,-0.0352,0.0155375,-0.07853422,0.12095642,-0.08663237,0.090957746,9.640443,1.7955501,0.062371723,-6.9789839,110.4071253,0.91614705,0.014508593,0.06934442
1782141441776,0.043050002,9.77295,1.6690501,0.0127875,-0.0372625,0.0187,-0.07853422,0.12095642,-0.08663237,0.09248422,9.642094,1.7865825,0.062371723,-6.9789839,110.4071253,0.91614705,0.014508593,0.06934442
1782141441786,0.061950002,9.795,1.7500501,0.0127875,-0.0372625,0.0187,-0.034077298,0.15250301,-0.034168005,0.09316432,9.642398,1.7849036,0.062371723,-6.9789839,110.4071253,0.91614705,0.014508593,0.06934442
1782141441794,0.081,9.804001,1.8409501,-0.008525,-0.041525,0.0314875,-0.016602881,0.16163921,0.056084514,0.09582243,9.642488,1.784287,0.062371723,-6.9789839,110.4071253,0.91614705,0.014508593,0.06934442
1782141441804,0.11505,9.771001,1.863,-0.0105875,-0.050049998,0.0314875,0.013423562,0.12901974,0.0763036,0.10162644,9.641981,1.7866964,0.062371723,-6.9789839,110.4071253,0.91614705,0.014508593,0.06934442
1782141441827,0.177,9.74895,1.8919501,-0.008525,-0.0490875,0.0314875,0.03838136,0.11455536,0.04002726,0.10399814,9.641765,1.7877257,0.062371723,-6.9789839,110.4071253,0.91614705,0.014508593,0.06934442
1782141441835,0.141,9.747001,1.8100501,0.009625,-0.01815,0.0198,0.026532784,0.10548782,0.02161014,0.1142147,9.6415205,1.7884144,0.062371723,-6.9789839,110.4071253,0.91614705,0.014508593,0.06934442
1782141441845,0.15105,9.792001,1.75995,0.0127875,-0.0033,0.0144375,0.034475587,0.1501751,-0.0266639,0.11553747,9.64163,1.787741,0.062371723,-6.9789839,110.4071253,0.91614705,0.014508593,0.06934442
1782141441862,0.156,9.78495,1.7500501,0.0011,0.022275,0.00495,0.041735172,0.12387943,0.011308193,0.116574414,9.641826,1.786614,0.062371723,-6.9789839,110.4071253,0.91614705,0.014508593,0.06934442
1782141441864,0.156,9.77295,1.79805,0.0011,0.022275,0.00495,0.037297636,0.13075542,0.013557315,0.11831483,9.642171,1.7846419,0.062371723,-6.9789839,110.4071253,0.91614705,0.014508593,0.06934442
1782141441875,0.19605,9.8539505,1.8370501,-0.0180125,0.037125,-0.002475,0.07682712,0.21197796,0.05140233,0.11922289,9.641973,1.7856477,0.062371723,-6.9789839,110.4071253,0.91614705,0.014508593,0.06934442
1782141441893,0.19905001,9.838051,1.8769501,-0.0180125,0.037125,-0.002475,0.10032297,0.17302418,0.13423395,0.119398825,9.641729,1.7869536,0.062371723,-6.9789839,110.4071253,0.91614705,0.014508593,0.06934442
1782141441895,0.19605,9.832951,1.8919501,-0.0265375,0.0499125,-0.005775,0.116993874,0.15634632,0.14202821,0.11972704,9.6410265,1.7907162,0.062371723,-6.9789839,110.4071253,0.91614705,0.014508593,0.06934442
1782141441905,0.17205001,9.828,1.9800001,-0.0265375,0.055275,-0.014162499,0.053029373,0.1882906,0.18216217,0.11977205,9.640156,1.7954005,0.062371723,-6.9789839,110.4071253,0.91614705,0.014508593,0.06934442
1782141441924,0.16005,9.8209505,1.9470001,-0.0213125,0.054175,-0.015262499,0.0066974834,0.1684885,0.16649616,0.118122816,9.639333,1.7999177,0.062371723,-6.9789839,110.4071253,0.91614705,0.014508593,0.06934442
1782141441927,0.12195001,9.807,1.9710001,-0.0116875,0.047849998,-0.0089375,-0.0150870755,0.14875221,0.16236103,0.11725334,9.638984,1.8018448,0.062371723,-6.9789839,110.4071253,0.91614705,0.014508593,0.06934442
1782141441936,0.08805001,9.795,1.9369501,-0.0116875,0.047849998,-0.0089375,-0.02602733,0.1569519,0.12990296,0.11513708,9.638298,1.805639,0.062371723,-6.9789839,110.4071253,0.91614705,0.014508593,0.06934442
1782141441945,0.10005,9.75405,1.8529501,-0.0031625,0.0265375,-0.002475,-0.011784822,0.116496086,0.043135285,0.11230712,9.637613,1.8094693,0.062371723,-6.9789839,110.4071253,0.91614705,0.014508593,0.06934442
1782141441955,0.124050006,9.7560005,1.779,-0.008525,0.01265,-0.004675,0.0126757845,0.118388176,-0.03053832,0.11159371,9.637585,1.8096722,0.062371723,-6.9789839,110.4071253,0.91614705,0.014508593,0.06934442
1782141441978,0.13395001,9.74205,1.743,-0.01595,0.0083875,-0.0100375,0.041099094,0.08060455,-0.026562095,0.11046675,9.637492,1.8102351,0.062371723,-6.9789839,110.4071253,0.91614705,0.014508593,0.06934442
1782141442013,0.15795001,9.744,1.7479501,-0.01595,0.0424875,6.875E-4,-0.08147403,0.06482887,-0.034143925,0.10052403,9.636122,1.818094,0.062371723,-6.9789839,110.4071253,0.91614705,0.014508593,0.06934442
1782141442020,0.15105,9.71805,1.7839501,-0.01485,0.0424875,0.00275,-0.07327142,0.05286312,-0.029292941,0.09922142,9.636087,1.818343,0.062371723,-6.9789839,110.4071253,0.91614705,0.014508593,0.06934442
1782141442039,-0.00405,9.675,1.8250501,-0.01595,0.0339625,0.0081124995,-0.080565736,0.05822563,-0.01893425,0.09451573,9.635825,1.8199843,0.062371723,-6.9789839,110.4071253,0.9303072,0.0053014937,0.064391315
1782141442040,0.0139500005,9.694051,1.8010501,-0.0127875,0.0243375,0.0092124995,-0.080565736,0.05822563,-0.01893425,0.09451573,9.635825,1.8199843,0.062371723,-6.9789839,110.4071253,0.9303072,0.0053014937,0.064391315
1782141442050,0.061950002,9.639001,1.8010501,-0.0053625,0.0243375,0.0070125,-0.03104714,0.003068924,-0.018449664,0.093382634,9.635913,1.8195786,0.062371723,-6.9789839,110.4071253,0.9303072,0.0053014937,0.064391315
1782141442061,0.052950002,9.699,1.7770501,-0.0020625,0.0265375,0.0017875,-0.039143465,0.062862396,-0.04139924,0.092728555,9.636029,1.8189942,0.062371723,-6.9789839,110.4071253,0.9303072,0.0053014937,0.064391315
1782141442079,0.061950002,9.711,1.7670001,-0.0020625,0.0265375,-0.003575,-0.041185476,0.0866003,-0.00220716,0.09209347,9.636138,1.8184494,0.062371723,-6.9789839,110.4071253,0.9303072,0.0053014937,0.064391315
1782141442080,0.060000002,9.703951,1.7719501,-0.0053625,0.0276375,-0.0089375,-0.041185476,0.0866003,-0.00220716,0.08918548,9.6364,1.8172072,0.062371723,-6.9789839,110.4071253,0.9303072,0.0053014937,0.064391315
1782141442092,0.00705,9.759001,1.863,-0.008525,0.0191125,-0.0089375,-0.086481765,0.119672775,0.031335354,0.086481765,9.636328,1.8177147,0.062371723,-6.9789839,110.4071253,0.9303072,0.0053014937,0.064391315
1782141442112,0.012,9.74895,1.8870001,-0.0116875,0.0180125,-0.003575,-0.07356313,0.118842125,0.1491214,0.085162796,9.636232,1.8182875,0.062371723,-6.9789839,110.4071253,0.9303072,0.0053014937,0.064391315
1782141442113,0.0139500005,9.76095,1.9440001,-0.0042625,0.004125,0.0103124995,-0.07356313,0.118842125,0.1491214,0.08256313,9.635208,1.8238287,0.062371723,-6.9789839,110.4071253,0.9303072,0.0053014937,0.064391315
1782141442123,0.060000002,9.747001,1.968,-0.0042625,0.004125,0.0103124995,-0.02304887,0.112257004,0.14174497,0.08257219,9.634927,1.8253123,0.062371723,-6.9789839,110.4071253,0.9303072,0.0053014937,0.064391315
1782141442132,0.07395,9.75195,1.9159501,0.009625,-0.009625,0.0166375,-0.010659255,0.11736202,0.08894849,0.08378157,9.634619,1.8268852,0.062371723,-6.9789839,110.4071253,0.9303072,0.0053014937,0.064391315
1782141442142,0.08400001,9.723001,1.9060501,0.0127875,-0.01815,0.0166375,-0.0025039762,0.088397026,0.07921159,0.08552198,9.634604,1.8268712,0.062371723,-6.9789839,110.4071253,0.9303072,0.0053014937,0.064391315
1782141442162,0.112050004,9.711,1.8730501,0.0127875,-0.01925,0.0144375,0.0151017085,0.11901951,0.019532084,0.08650398,9.6346035,1.8268385,0.062371723,-6.9789839,110.4071253,0.9303072,0.0053014937,0.064391315
1782141442164,0.10005,9.712951,1.84395,0.0064625,-0.0127875,6.875E-4,0.0151017085,0.11901951,0.019532084,0.089898296,9.635031,1.824418,0.062371723,-6.9789839,110.4071253,0.9303072,0.0053014937,0.064391315
1782141442174,0.12705001,9.7560005,1.8529501,0.0031625,-0.009625,0.0017875,0.036246292,0.12090492,0.028919697,0.09027415,9.635077,1.8241496,0.062371723,-6.9789839,110.4071253,0.9303072,0.0053014937,0.064391315
1782141442193,0.109950006,9.76095,1.8750001,-0.0020625,-0.0064625,-0.0015125,0.036790214,0.090106964,0.03065896,0.09127602,9.635061,1.8241959,0.062371723,-6.9789839,110.4071253,0.9303072,0.0053014937,0.064391315
1782141442195,0.124050006,9.74205,1.8580501,-0.0031625,-0.0064625,-0.0015125,0.036790214,0.090106964,0.03065896,0.09220979,9.634844,1.8252912,0.062371723,-6.9789839,110.4071253,0.9303072,0.0053014937,0.064391315
1782141442204,0.16005,9.711,1.82895,0.0,-0.0075625,-0.0015125,0.055239327,0.078103065,0.008807421,0.09281068,9.634848,1.8252426,0.062371723,-6.9789839,110.4071253,0.9303072,0.0053014937,0.064391315
1782141442212,0.14595,9.684,1.8079501,-0.0011,-0.009625,-0.004675,0.051330812,0.04903984,-0.01660335,0.09410218,9.634911,1.8248341,0.062371723,-6.9789839,110.4071253,0.9303072,0.0053014937,0.064391315
1782141442223,0.124050006,9.703951,1.8079501,-0.0020625,-0.0044,-0.004675,0.028970502,0.06885052,-0.015844107,0.0949249,9.635055,1.8240368,0.062371723,-6.9789839,110.4071253,0.9303072,0.0053014937,0.064391315
1782141442243,0.12195001,9.735001,1.8750001,-0.008525,-0.0075625,-0.0067375,0.0199667,0.08143425,0.096123695,0.095125385,9.635075,1.8239164,0.062371723,-6.9789839,110.4071253,0.9303072,0.0053014937,0.064391315
1782141442244,0.10005,9.72,1.88205,-0.0127875,-0.009625,-0.0078375,0.0199667,0.08143425,0.096123695,0.095083304,9.634516,1.8268764,0.062371723,-6.9789839,110.4071253,0.9303072,0.0053014937,0.064391315
1782141442265,0.11505,9.72,1.9590001,-0.0127875,-0.009625,-0.0078375,0.040355586,0.10366154,0.09869969,0.095083304,9.634516,1.8268764,0.062371723,-6.9789839,110.4071253,0.9303072,0.0053014937,0.064391315
1782141442277,0.117000006,9.76605,1.9440001,-0.009625,-0.0033,-0.0078375,0.021614797,0.13330364,0.107835054,0.09577683,9.633019,1.8347143,0.062371723,-6.9789839,110.4071253,0.9303072,0.0053014937,0.064391315
1782141442294,0.12195001,9.747001,1.8940501,-0.0042625,-0.0075625,-0.0067375,0.016466938,0.10451126,0.054189324,0.09551965,9.632637,1.8367332,0.062371723,-6.9789839,110.4071253,0.9303072,0.0053014937,0.064391315
1782141442296,0.112050004,9.736951,1.8919501,-0.0020625,-0.0053625,-0.004675,0.016556665,0.11459446,0.027011514,0.09549334,9.632406,1.8379385,0.062371723,-6.9789839,110.4071253,0.9303072,0.0053014937,0.064391315
1782141442311,0.105000004,9.76605,1.8529501,-0.0020625,-0.0053625,-0.004675,-0.011322074,0.13872433,0.019421816,0.09553017,9.63235,1.8382349,0.062371723,-6.9789839,110.4071253,0.9303072,0.0053014937,0.064391315
1782141442312,0.08400001,9.771001,1.8580501,-0.008525,-0.0149875,-0.004675,-0.011322074,0.13872433,0.019421816,0.09532208,9.632277,1.8386283,0.062371723,-6.9789839,110.4071253,0.9303072,0.0053014937,0.064391315
1782141442324,0.064950004,9.74895,1.863,-0.01705,-0.02035,6.875E-4,-0.02959086,0.11698055,0.022721052,0.09460545,9.632119,1.8394928,0.062371723,-6.9789839,110.4071253,0.9303072,0.0053014937,0.064391315
1782141442333,0.09105001,9.77505,1.932,-0.023375,-0.01705,0.00495,-0.004145816,0.14360619,0.08900893,0.09481471,9.631762,1.8413503,0.062371723,-6.9789839,110.4071253,0.9303072,0.0053014937,0.064391315
1782141442344,0.112050004,9.7560005,1.9849501,-0.023375,-0.02035,0.00495,0.015801169,0.12536335,0.13780415,0.095644735,9.63105,1.8450223,0.062371723,-6.9789839,110.4071253,0.9303072,0.0053014937,0.064391315
1782141442364,0.097950004,9.74895,1.9900501,-0.0202125,-0.0224125,0.00385,0.014561981,0.1294365,0.08427751,0.096248835,9.630637,1.8471459,0.062371723,-6.9789839,110.4071253,0.9303072,0.0053014937,0.064391315
1782141442365,0.096,9.75405,1.9609501,0.0,-0.028875,-0.0067375,0.014561981,0.1294365,0.08427751,0.09748802,9.629564,1.8526726,0.062371723,-6.9789839,110.4071253,0.9303072,0.0053014937,0.064391315
1782141442376,0.105000004,9.77295,1.8460501,0.008525,-0.0298375,-0.0089375,0.005550295,0.12455273,0.065034986,0.09749971,9.629498,1.8530151,0.062371723,-6.9789839,110.4071253,0.9303072,0.0053014937,0.064391315
1782141442395,0.052950002,9.77805,1.8030001,0.0127875,-0.0298375,-0.0078375,-0.036241822,0.18318844,-0.11992848,0.09715689,9.629906,1.8509126,0.062371723,-6.9789839,110.4071253,0.9303072,0.0053014937,0.064391315
1782141442396,0.061950002,9.81105,1.743,0.0011,-0.027775,0.00385,-0.036241822,0.18318844,-0.11992848,0.096241824,9.630862,1.8459786,0.062371723,-6.9789839,110.4071253,0.9303072,0.0053014937,0.064391315
1782141442404,0.08805001,9.826051,1.8079501,-0.0053625,-0.0235125,0.0103124995,-0.008887105,0.19491577,-0.036570072,0.096311964,9.631065,1.8449124,0.062371723,-6.9789839,110.4071253,0.9303072,0.0053014937,0.064391315
1782141442413,0.108,9.838051,1.8559501,-0.0127875,-0.01815,0.0187,0.009063534,0.20700741,0.011059284,0.09778642,9.631123,1.8445319,0.062371723,-6.9789839,110.4071253,0.9303072,0.0053014937,0.064391315
1782141442429,0.10305001,9.795,1.8919501,-0.009625,-0.0149875,0.0262625,-0.010075465,0.16159344,0.100972414,0.09893647,9.631043,1.8448908,0.062371723,-6.9789839,110.4071253,0.9303072,0.0053014937,0.064391315
1782141442437,0.093,9.804001,1.9849501,-0.0042625,-0.0127875,0.027224999,-0.0129396245,0.1737814,0.13615,0.10307547,9.630407,1.8479776,0.062371723,-6.9789839,110.4071253,0.9303072,0.0053014937,0.064391315
1782141442444,0.072000004,9.75405,1.9519501,0.010725,-0.011825,0.029424999,-0.034882747,0.124025345,0.102196574,0.10565496,9.630074,1.849577,0.062371723,-6.9789839,110.4071253,0.9303072,0.0053014937,0.064391315
1782141442463,0.049950004,9.744,1.9249501,0.0191125,-0.0138875,0.028324999,-0.022312403,0.09965706,0.06336379,0.10688275,9.630025,1.8497535,0.062371723,-6.9789839,110.4071253,0.9303072,0.0053014937,0.064391315
1782141442464,0.08805001,9.736951,1.9200001,0.025575,-0.0213125,0.022,-0.022312403,0.09965706,0.06336379,0.11036241,9.630393,1.8476363,0.062371723,-6.9789839,110.4071253,0.9303072,0.0053014937,0.064391315
1782141442475,0.07395,9.759001,1.8700501,0.0202125,-0.0309375,0.0144375,-0.038331106,0.12800503,0.025674224,0.11267069,9.630991,1.8443753,0.062371723,-6.9789839,110.4071253,0.9303072,0.0053014937,0.064391315
1782141442485,0.11505,9.77805,1.8700501,0.0053625,-0.0468875,0.013475,9.06907E-4,0.14689255,0.02663815,0.113046534,9.63111,1.8437322,0.062371723,-6.9789839,110.4071253,0.9303072,0.0053014937,0.064391315
1782141442495,0.16005,9.780001,1.9200001,-0.009625,-0.0543125,0.0103124995,0.042305663,0.14915752,0.07517362,0.11545885,9.631129,1.8434798,0.062371723,-6.9789839,110.4071253,0.9303072,0.0053014937,0.064391315
1782141442514,0.16005,9.75405,1.9350001,-0.0116875,-0.0554125,0.0070125,0.096620224,0.12582302,0.10793245,0.118149705,9.630718,1.8454572,0.062371723,-6.9789839,110.4071253,0.9303072,0.0053014937,0.064391315
1782141442516,0.20295002,9.747001,1.9440001,-0.008525,-0.052249998,-0.003575,0.090412036,0.102054596,0.09480667,0.12132979,9.6301775,1.8480676,0.062371723,-6.9789839,110.4071253,0.9303072,0.0053014937,0.064391315
1782141442544,0.21795002,9.7560005,1.9560001,0.0298375,0.0020625,-0.02915,0.038475245,0.05739975,0.06209767,0.124574766,9.629601,1.8508524,0.062371723,-6.9789839,110.4071253,0.9303072,0.0053014937,0.064391315
1782141442562,0.109950006,9.71805,1.8919501,0.0352,0.005225,-0.0248875,-0.011854127,0.08792305,0.043645144,0.12019378,9.630552,1.8461884,0.062371723,-6.9789839,110.4071253,0.9303072,0.0053014937,0.064391315
1782141442563,0.07395,9.724951,1.8390001,0.033,0.005225,-0.0089375,-0.0497538,0.09699249,0.0018876791,0.118753806,9.630958,1.8441625,0.062371723,-6.9789839,110.4071253,0.9303072,0.0053014937,0.064391315
1782141442575,0.076950006,9.74895,1.7740501,0.0191125,-0.0064625,0.0017875,-0.03992398,0.11671734,-0.063565135,0.11717384,9.631875,1.8394729,0.062371723,-6.9789839,110.4071253,0.90351266,0.010726981,0.08576034
1782141442593,0.108,9.744,1.79295,0.0031625,-0.0149875,0.011275,-0.010528766,0.08325863,-0.010049343,0.11727877,9.632512,1.8361236,0.062371723,-6.9789839,110.4071253,0.90351266,0.010726981,0.08576034
1782141442594,0.108,9.71595,1.8250501,-0.006325,-0.01925,0.0144375,-0.010528766,0.08325863,-0.010049343,0.11852877,9.632691,1.8350995,0.062371723,-6.9789839,110.4071253,0.90351266,0.010726981,0.08576034
1782141442610,0.132,9.655951,1.8270001,-0.009625,-0.01705,0.012375,-0.015755787,0.01151371,0.038705826,0.11949527,9.632675,1.8351276,0.062371723,-6.9789839,110.4071253,0.90351266,0.010726981,0.08576034
1782141442611,0.105000004,9.64395,1.8750001,-0.0053625,-0.008525,0.00275,-0.015755787,0.01151371,0.038705826,0.12075579,9.632437,1.8362943,0.062371723,-6.9789839,110.4071253,0.90351266,0.010726981,0.08576034
1782141442621,-0.016050002,9.615001,1.8580501,0.0053625,-0.0044,-0.0067375,-0.13246338,-0.01722622,0.020375848,0.11862901,9.632201,1.8376673,0.062371723,-6.9789839,110.4071253,0.90351266,0.010726981,0.08576034
1782141442631,-0.069000006,9.60105,1.7580001,0.01595,-0.008525,-0.0132,-0.17976427,-0.03179741,-0.07676554,0.113513276,9.632491,1.8364761,0.062371723,-6.9789839,110.4071253,0.90351266,0.010726981,0.08576034
1782141442648,-0.069000006,9.592951,1.7119501,0.023375,-0.0075625,-0.011,-0.17663372,-0.05107212,-0.20778632,0.11076427,9.632848,1.8347657,0.062371723,-6.9789839,110.4071253,0.90351266,0.010726981,0.08576034
1782141442651,-0.07305,9.60795,1.5520501,0.0341,-0.0235125,-0.005775,-0.17466825,-0.027630806,-0.2688396,0.10358371,9.635022,1.8237364,0.062371723,-6.9789839,110.4071253,0.90351266,0.010726981,0.08576034
1782141442661,-0.13605,9.558001,1.4290501,0.0309375,-0.0352,0.0017875,-0.23438412,-0.07932758,-0.3827498,0.10004677,9.636416,1.8165561,0.062371723,-6.9789839,110.4071253,0.90351266,0.010726981,0.08576034
1782141442672,-0.19995001,9.687,1.473,0.01595,-0.0543125,0.00385,-0.29159838,0.047418594,-0.32713103,0.095657595,9.638399,1.8062388,0.062371723,-6.9789839,110.4071253,0.90351266,0.010726981,0.08576034
1782141442681,-0.06105,9.58395,1.485,0.0053625,-0.0862125,0.0209,-0.15098192,-0.057135582,-0.3071406,0.0896338,9.640502,1.7952894,0.062371723,-6.9789839,110.4071253,0.90351266,0.010726981,0.08576034
1782141442699,-0.052050002,9.519,1.48905,-0.0127875,-0.1054625,0.0325875,-0.13182282,-0.16084671,-0.2574042,0.096872814,9.641897,1.7874043,0.062371723,-6.9789839,110.4071253,0.90351266,0.010726981,0.08576034
1782141442703,-0.13605,9.358951,1.54005,-0.0127875,-0.1054625,0.0325875,-0.23153663,-0.28317738,-0.24619222,0.096872814,9.641897,1.7874043,0.062371723,-6.9789839,110.4071253,0.90351266,0.010726981,0.08576034
1782141442712,-0.25800002,9.688951,1.48905,-0.0191125,-0.108625,0.0325875,-0.35025162,0.045838356,-0.29203725,0.09578063,9.642277,1.7854146,0.062371723,-6.9789839,110.4071253,0.90351266,0.010726981,0.08576034
1782141442729,-0.162,9.72795,1.5280501,-0.025575,-0.1023,0.0485375,-0.13522747,-0.11021328,-0.3887955,0.092251584,9.643112,1.7810873,0.062371723,-6.9789839,110.4071253,0.90351266,0.010726981,0.08576034
1782141442732,-0.045,9.46395,1.401,-0.0127875,-0.1203125,0.0251625,-0.14349926,-0.18068695,-0.37147617,0.09817747,9.644214,1.7747955,0.062371723,-6.9789839,110.4071253,0.90351266,0.010726981,0.08576034
1782141442743,-0.33,9.213,1.5850501,0.009625,-0.1128875,-0.005775,-0.42564034,-0.4321146,-0.18498337,0.09766923,9.644991,1.7705864,0.062371723,-6.9789839,110.4071253,0.90351266,0.010726981,0.08576034
1782141442752,-0.86100006,9.02805,1.2709501,0.0446875,-0.108625,0.00495,-0.95290184,-0.6182623,-0.4927454,0.09190175,9.646313,1.7636955,0.062371723,-6.9789839,110.4071253,0.90351266,0.010726981,0.08576034
1782141442762,-0.63105005,8.49705,1.8250501,0.0617375,0.01265,0.0752125,-0.72359884,-1.1504145,0.067709565,0.090514384,9.647032,1.7598189,0.062371723,-6.9789839,110.4071253,0.90351266,0.010726981,0.08576034
1782141442782,0.049950004,6.29295,1.6860001,0.056375,0.0658625,0.13695,0.5526202,-4.525027,0.81582034,0.11906507,9.648565,1.7496868,0.062371723,-6.9789839,110.4071253,0.90351266,0.010726981,0.08576034
1782141442784,-0.28905,6.2980504,1.7479501,0.093637496,0.093637496,0.3262875,0.5526202,-4.525027,0.81582034,0.13242987,9.649027,1.7461797,0.062371723,-6.9789839,110.4071253,0.90351266,0.010726981,0.08576034
1782141442792,1.06305,5.4739504,2.3749502,0.08305,-0.0044,0.3018125,0.90031946,-4.176014,0.6365347,0.14771219,9.649541,1.7421044,0.062371723,-6.9789839,110.4071253,0.90351266,0.010726981,0.08576034
1782141442816,0.83295006,5.6080503,2.2699502,0.0702625,-0.1299375,0.242275,0.6126449,-3.2792401,0.58014286,0.1770888,9.650332,1.7349709,0.062371723,-6.9789839,110.4071253,0.90351266,0.010726981,0.08576034
1782141442829,-8.161051,-5.499,2.9290502,-0.3256,0.3287625,-0.738925,-8.300451,-15.145643,1.1702923,0.22555794,9.6517935,1.7211633,0.062371723,-6.9789839,110.4071253,0.90351266,0.010726981,0.08576034
1782141442833,-3.7860003,1.7350501,2.7439501,-0.188375,0.0573375,-0.8262375,-3.8842025,-7.910367,0.9757054,0.13940059,9.646643,1.758758,0.062371723,-6.9789839,110.4071253,0.90351266,0.010726981,0.08576034
1782141442855,-3.6060002,5.4430504,3.1609502,-0.050049998,0.1233375,-0.5377625,2.6506724,12.310156,1.1288329,0.09820231,9.645417,1.7682447,0.062371723,-6.9789839,110.4071253,0.90351266,0.010726981,0.08576034
1782141442857,-3.831,7.6969504,2.598,-0.0628375,0.367125,0.0581625,2.6506724,12.310156,1.1288329,0.029377779,9.648796,1.7522172,0.062371723,-6.9789839,110.4071253,0.90351266,0.010726981,0.08576034
1782141442863,-0.58605003,4.6309505,1.9780501,-0.1084875,0.1062875,-0.0132,-1.1657437,-3.0472345,-0.017840624,0.026793607,9.647235,1.7608407,0.062371723,-6.9789839,110.4071253,0.90351266,0.010726981,0.08576034
1782141442887,1.401,8.887051,0.61005,-0.072325,0.055275,0.0655875,-0.109504856,-0.538229,0.010024309,0.026707098,9.647202,1.7610126,0.062371723,-6.9789839,110.4071253,0.90351266,0.010726981,0.08576034
1782141442898,-0.37800002,9.39,2.3490002,-0.14575,0.1403875,-0.0429,-0.38976967,-0.24907875,0.5438925,0.01940642,9.641626,1.7913836,0.062371723,-6.9789839,110.4071253,0.90351266,0.010726981,0.08576034
1782141442909,-0.13605,10.180051,2.55795,-0.132,0.11275,-0.0089375,-0.1405289,0.54522705,0.7302319,0.006481471,9.636586,1.8183938,0.062371723,-6.9789839,110.4071253,0.90351266,0.010726981,0.08576034
1782141442914,-0.15195,9.699,2.4760501,-0.1159125,0.0925375,0.0081124995,-0.1547072,0.066394806,0.6366714,0.0027571898,9.632606,1.8393787,0.062371723,-6.9789839,110.4071253,0.90351266,0.010726981,0.08576034
1782141442933,-0.033,9.7900505,2.46405,-0.1010625,0.0627,0.0155375,-0.03503679,-0.0069274902,0.6448798,0.0027571898,9.632606,1.8393787,0.062371723,-6.9789839,110.4071253,0.90351266,0.010726981,0.08576034
1782141442934,0.076950006,9.976951,2.526,-0.038225,0.0361625,0.03575,0.05742604,0.30277443,0.5982232,0.0069867903,9.626878,1.8691204,0.062371723,-6.9789839,110.4071253,0.90351266,0.010726981,0.08576034
1782141442944,-0.009000001,9.40905,2.4400501,0.009625,0.0328625,0.046475,0.07397987,0.20964622,0.5372982,0.011970132,9.625404,1.876652,0.062371723,-6.9789839,110.4071253,0.90351266,0.010726981,0.08576034
1782141442966,0.093,9.90705,2.2009501,0.072325,-0.0033,0.0581625,0.06121128,0.05316639,0.10717356,0.014659809,9.623104,1.8883997,0.062371723,-6.9789839,110.4071253,0.90351266,0.010726981,0.08576034
1782141442968,0.12705001,9.90495,2.0689502,0.072325,-0.0033,0.0581625,0.06121128,0.05316639,0.10717356,0.02473872,9.623784,1.8848265,0.062371723,-6.9789839,110.4071253,0.90351266,0.010726981,0.08576034
1782141442975,0.19605,9.859051,1.84395,0.075625,-0.0064625,0.060225,0.16252504,0.2337532,-0.03299892,0.029047523,9.624462,1.8812977,0.062371723,-6.9789839,110.4071253,0.90351266,0.010726981,0.08576034
1782141442985,0.21495001,9.675,1.69095,0.0691625,-0.0149875,0.0592625,0.17061841,0.047545433,-0.1746732,0.038295243,9.6262,1.8722166,0.062371723,-6.9789839,110.4071253,0.90351266,0.010726981,0.08576034
1782141442999,0.21495001,9.651,1.6210501,0.0691625,-0.0149875,0.0592625,0.109391466,0.14201927,-0.19224143,0.05860855,9.630931,1.8471915,0.062371723,-6.9789839,110.4071253,0.90351266,0.010726981,0.08576034
1782141443004,0.17205001,9.771001,1.674,0.0435875,-0.01705,0.0496375,0.109638855,0.1392498,-0.16879237,0.05860855,9.630931,1.8471915,0.062371723,-6.9789839,110.4071253,0.90351266,0.010726981,0.08576034
1782141443015,0.18195,9.74895,1.7670001,0.0287375,-0.028875,0.0496375,0.11175156,0.11611462,-0.0698272,0.066205874,9.632393,1.8392981,0.062371723,-6.9789839,110.4071253,0.90351266,0.010726981,0.08576034
1782141443032,0.18405001,9.687,1.83405,0.0224125,-0.0331375,0.0485375,0.0983423,0.18308258,0.15412986,0.07019845,9.632835,1.8368273,0.062371723,-6.9789839,110.4071253,0.90351266,0.010726981,0.08576034
1782141443035,0.19605,9.847051,1.9950001,0.01705,-0.0352,0.0474375,0.11077323,0.21419334,0.15892267,0.08165771,9.632918,1.8359202,0.062371723,-6.9789839,110.4071253,0.90351266,0.010726981,0.08576034
1782141443045,0.177,9.672001,1.94895,0.0276375,-0.041525,0.0474375,0.08403442,0.039276123,0.112546444,0.09296558,9.632725,1.8364036,0.062371723,-6.9789839,110.4071253,0.90351266,0.010726981,0.08576034
1782141443066,0.21300001,9.795,1.82895,0.0287375,-0.0628375,0.044275,0.10918657,0.06996441,-0.054844618,0.09697189,9.632862,1.8354735,0.062371723,-6.9789839,110.4071253,0.90351266,0.010726981,0.08576034
1782141443089,0.20805001,9.73005,1.8030001,0.007425,-0.0554125,0.0325875,0.18089473,0.038960457,-0.11174035,0.12810528,9.63604,1.8167905,0.062371723,-6.9789839,110.4071253,0.90351266,0.010726981,0.08576034
1782141443100,0.25095,9.700951,1.8700501,0.0,-0.0479875,0.0229625,0.16216137,0.091635704,-0.023699522,0.13678865,9.636314,1.8146996,0.062371723,-6.9789839,110.4071253,0.90351266,0.010726981,0.08576034
1782141443111,0.23205002,9.708,1.8870001,-0.0020625,-0.0468875,0.0177375,0.09716131,0.07723713,0.12972915,0.13975158,9.636176,1.8152112,0.062371723,-6.9789839,110.4071253,0.91521347,0.004641058,0.08014538
1782141443129,0.29895002,9.78495,1.9710001,0.009625,-0.0383625,0.0155375,0.14672795,0.11182308,0.14145505,0.14738953,9.635448,1.8184669,0.062371723,-6.9789839,110.4071253,0.91521347,0.004641058,0.08014538
1782141443130,0.29895002,9.747001,1.9609501,0.024475,-0.0235125,0.0103124995,0.15115052,0.048891068,0.11731243,0.1548495,9.635109,1.8196377,0.062371723,-6.9789839,110.4071253,0.91521347,0.004641058,0.08014538
1782141443149,0.31395,9.672001,1.88505,0.0319,-0.01705,0.0092124995,0.17815585,0.14680195,-0.13430285,0.1548495,9.635109,1.8196377,0.062371723,-6.9789839,110.4071253,0.91521347,0.004641058,0.08014538
1782141443151,0.333,9.706051,1.79805,0.0383625,-0.009625,-0.003575,0.16266733,0.123646736,-0.20329821,0.16189416,9.636198,1.8132529,0.062371723,-6.9789839,110.4071253,0.91521347,0.004641058,0.08014538
1782141443156,0.28500003,9.75405,1.60905,0.0319,-0.0075625,-0.0078375,0.120412394,0.116306305,-0.19572031,0.16328269,9.637303,1.8072482,0.062371723,-6.9789839,110.4071253,0.91521347,0.004641058,0.08014538
1782141443166,0.282,9.7560005,1.6350001,0.0191125,0.005225,-0.014162499,0.125218,0.098335266,-0.17710006,0.16473201,9.638616,1.8001001,0.062371723,-6.9789839,110.4071253,0.91521347,0.004641058,0.08014538
1782141443184,0.26595002,9.8230505,1.65495,0.0127875,0.007425,-0.0163625,-0.039323866,0.4047575,-0.6583667,0.16597325,9.638977,1.7980472,0.062371723,-6.9789839,110.4071253,0.91521347,0.004641058,0.08014538
1782141443190,0.22695,10.09395,1.2760501,-0.041525,0.0573375,0.0081124995,0.062347755,0.45347023,-0.5140424,0.16337387,9.641193,1.7863667,0.062371723,-6.9789839,110.4071253,0.91521347,0.004641058,0.08014538
1782141443197,0.64905006,10.22595,1.6159501,-0.171325,0.103125,0.0539,0.47909945,0.58645725,-0.17896056,0.16601357,9.640878,1.7878251,0.062371723,-6.9789839,110.4071253,0.91521347,0.004641058,0.08014538
1782141443206,0.56805,10.129951,2.0640001,-0.2288,0.091437496,0.0251625,0.3921665,0.494709,0.24697638,0.17352146,9.63754,1.8050218,0.062371723,-6.9789839,110.4071253,0.91521347,0.004641058,0.08014538
1782141443216,0.321,10.02705,2.6220002,-0.204325,0.1095875,-0.0132,0.14514631,0.39691925,0.7780762,0.1766735,9.632683,1.8304642,0.062371723,-6.9789839,110.4071253,0.91521347,0.004641058,0.08014538
1782141443234,0.24195,10.07205,2.7469501,-0.0372625,0.1073875,-0.0226875,0.050329298,0.5079174,0.9282292,0.16762072,9.624133,1.8757209,0.062371723,-6.9789839,110.4071253,0.91521347,0.004641058,0.08014538
1782141443236,0.22305001,10.149,2.6749501,-0.0372625,0.1073875,-0.0226875,0.05511716,0.5254507,0.79625237,0.16762072,9.624133,1.8757209,0.062371723,-6.9789839,110.4071253,0.91521347,0.004641058,0.08014538
1782141443247,0.22995001,10.153951,2.4780002,0.0532125,0.0968,-0.021724999,0.06517826,0.5307245,0.5973729,0.16443098,9.6236725,1.8783746,0.062371723,-6.9789839,110.4071253,0.91521347,0.004641058,0.08014538
1782141443266,0.16305001,10.068001,2.24895,0.0884125,0.0968,-0.0248875,0.028118566,0.5012646,0.46180975,0.16477175,9.623226,1.8806273,0.062371723,-6.9789839,110.4071253,0.91521347,0.004641058,0.08014538
1782141443268,0.096,10.06305,2.1670501,0.1596375,0.0925375,-0.0259875,-0.062131286,0.43730736,0.29877198,0.15813129,9.625743,1.8682781,0.062371723,-6.9789839,110.4071253,0.91521347,0.004641058,0.08014538
1782141443276,0.08400001,10.045951,1.8700501,0.1681625,0.088275,-0.0237875,-0.005032301,0.38928604,-0.11402929,0.15347265,9.62878,1.8529456,0.062371723,-6.9789839,110.4071253,0.91521347,0.004641058,0.08014538
1782141443299,0.16005,10.07205,1.899,0.1511125,0.11165,-0.0237875,0.048736677,0.37043,-0.011792064,0.14924744,9.632331,1.8347564,0.062371723,-6.9789839,110.4071253,0.91521347,0.004641058,0.08014538
1782141443303,0.16005,10.05795,1.8270001,0.1181125,0.055275,-0.0419375,0.09378897,0.32332516,0.0986861,0.14026333,9.63757,1.8077421,0.062371723,-6.9789839,110.4071253,0.91521347,0.004641058,0.08014538
1782141443307,0.27105,9.913951,1.932,0.1181125,0.0510125,-0.0451,0.13178766,0.27545738,0.12909782,0.13826105,9.638625,1.802264,0.062371723,-6.9789839,110.4071253,0.91521347,0.004641058,0.08014538
1782141443316,0.22695,9.889951,2.0040002,0.122375,0.0413875,-0.061049998,0.09205492,0.2496481,0.21046543,0.13746728,9.639403,1.798173,0.062371723,-6.9789839,110.4071253,0.91521347,0.004641058,0.08014538
1782141443334,0.18,9.91905,1.98705,0.16499999,-0.0011,-0.0801625,-0.0069046095,0.23030758,0.12520933,0.13489509,9.640303,1.7935348,0.062371723,-6.9789839,110.4071253,0.91521347,0.004641058,0.08014538
1782141443337,0.10005,9.847051,1.84905,0.16499999,-0.0011,-0.0801625,-0.019795403,0.20184803,0.08096838,0.123904616,9.643743,1.7757407,0.062371723,-6.9789839,110.4071253,0.91521347,0.004641058,0.08014538
1782141443348,0.079050004,9.780001,1.7340001,0.1841125,9.625E-4,-0.0759,-0.032665573,0.13140488,-0.016000628,0.11580957,9.646832,1.7594314,0.062371723,-6.9789839,110.4071253,0.91521347,0.004641058,0.08014538
1782141443369,0.105000004,9.71595,1.60395,0.198,0.0169125,-0.06215,-0.06399585,0.07502079,-0.1810832,0.09699585,9.65698,1.7040333,0.062371723,-6.9789839,110.4071253,0.91521347,0.004641058,0.08014538
1782141443370,0.105000004,9.73005,1.59195,0.1958,0.020075,-0.0567875,-0.06399585,0.07502079,-0.1810832,0.09699585,9.65698,1.7040333,0.062371723,-6.9789839,110.4071253,0.91521347,0.004641058,0.08014538
1782141443377,0.072000004,9.675,1.4629501,0.19373749,0.023375,-0.0451,-0.017649584,0.013274193,-0.21437812,0.08964959,9.661726,1.6773282,0.062371723,-6.9789839,110.4071253,0.91521347,0.004641058,0.08014538
1782141443400,0.120000005,9.559951,1.3579501,0.189475,0.0083875,-0.02915,-0.028424982,-0.089146614,-0.42464244,0.088116676,9.6638365,1.6652094,0.062371723,-6.9789839,110.4071253,0.91521347,0.004641058,0.08014538
1782141443407,-0.064050004,9.550051,1.1710501,0.14575,-0.0053625,-0.0312125,-0.1418218,-0.12383366,-0.4352833,0.080603234,9.672062,1.617133,0.062371723,-6.9789839,110.4071253,0.91521347,0.004641058,0.08014538
1782141443417,-0.064050004,9.505051,1.1659501,0.1203125,9.625E-4,-0.0100375,-0.13784853,-0.1720066,-0.42135012,0.075474344,9.675558,1.596334,0.062371723,-6.9789839,110.4071253,0.91521347,0.004641058,0.08014538
1782141443432,-0.03705,9.493051,1.161,0.108625,0.006325,-0.0015125,-0.04878788,-0.14488316,-0.33609545,0.07379852,9.677057,1.5873002,0.062371723,-6.9789839,110.4071253,0.91521347,0.004641058,0.08014538
1782141443439,0.08595,9.580951,1.2760501,0.08085,0.021175,0.0314875,0.011746995,-0.100933075,-0.28151894,0.07278788,9.680834,1.5641456,0.062371723,-6.9789839,110.4071253,0.91521347,0.004641058,0.08014538
1782141443448,0.26295,9.57705,1.3050001,0.0638,0.0180125,0.0485375,0.18198583,-0.10659981,-0.24120474,0.07697686,9.6828375,1.5514889,0.062371723,-6.9789839,110.4071253,0.91521347,0.004641058,0.08014538
1782141443467,0.333,9.56505,1.3429501,0.040425,0.039325,0.011275,0.21781814,-0.07249069,-0.14463699,0.08551,9.684366,1.5414649,0.062371723,-6.9789839,110.4071253,0.91521347,0.004641058,0.08014538
1782141443468,0.31095,9.61305,1.389,0.040425,0.039325,0.011275,0.21781814,-0.07249069,-0.14463699,0.09313188,9.685541,1.533637,0.062371723,-6.9789839,110.4071253,0.91521347,0.004641058,0.08014538
1782141443478,0.14595,9.625051,1.4650501,0.0319,0.0510125,-0.005775,0.05034531,-0.061671257,-0.060953617,0.095656425,9.68638,1.5281676,0.062371723,-6.9789839,110.4071253,0.91521347,0.004641058,0.08014538
1782141443487,0.11505,9.660001,1.4770501,0.0309375,0.0606375,-0.018424999,0.021091618,-0.027383804,-0.044839263,0.095019005,9.68705,1.5239556,0.062371723,-6.9789839,110.4071253,0.91521347,0.004641058,0.08014538
1782141443497,0.08595,9.663,1.51995,0.0224125,0.069025,-0.0312125,-0.003824085,-0.024819374,5.835295E-4,0.09186288,9.687641,1.5203847,0.062371723,-6.9789839,110.4071253,0.91521347,0.004641058,0.08014538
1782141443517,0.108,9.66495,1.5799501,0.01595,0.0680625,-0.0345125,0.067784026,0.05955696,0.16097581,0.08977409,9.6878195,1.5193665,0.062371723,-6.9789839,110.4071253,0.91521347,0.004641058,0.08014538
1782141443518,0.12705001,9.703951,1.6350001,0.0031625,0.047849998,-0.035475,0.067784026,0.05955696,0.16097581,0.085215986,9.687444,1.5220243,0.062371723,-6.9789839,110.4071253,0.91521347,0.004641058,0.08014538
1782141443529,0.16005,9.814051,1.8370501,0.0022,0.0286,-0.035475,0.07879298,0.12769127,0.3079232,0.08239859,9.686743,1.5266309,0.062371723,-6.9789839,110.4071253,0.91521347,0.004641058,0.08014538
1782141443537,0.14805001,9.859051,1.8409501,0.0053625,0.0116875,-0.037675,0.06802867,0.17302036,0.30967057,0.08002134,9.68603,1.5312796,0.062371723,-6.9789839,110.4071253,0.91521347,0.004641058,0.08014538
1782141443551,0.12705001,9.852,1.8700501,0.0053625,0.0116875,-0.037675,-0.010370903,0.17888069,0.33774257,0.08002134,9.68603,1.5312796,0.062371723,-6.9789839,110.4071253,0.91521347,0.004641058,0.08014538
1782141443578,0.03795,9.850051,1.8510001,0.0224125,0.0105875,-0.0323125,-0.08017694,0.25714302,0.2622428,0.07532091,9.68512,1.5372576,0.062371723,-6.9789839,110.4071253,0.91521347,0.004641058,0.08014538
1782141443586,0.024,9.969001,1.8250501,0.041525,0.007425,-0.0100375,0.053935,0.29423237,0.2754085,0.07117694,9.683807,1.5457073,0.062371723,-6.9789839,110.4071253,0.91521347,0.004641058,0.08014538
1782141443596,0.16800001,9.969001,1.82895,0.041525,9.625E-4,0.0070125,0.053935,0.29423237,0.2754085,0.066065006,9.684818,1.5395916,0.062371723,-6.9789839,110.4071253,0.91521347,0.004641058,0.08014538
1782141443605,0.23895001,9.979051,1.8250501,0.0521125,-0.0160875,-0.002475,0.1677497,0.293725,0.28889036,0.06999504,9.685193,1.53705,0.062371723,-6.9789839,110.4071253,0.91521347,0.004641058,0.08014538
1782141443619,0.23505001,9.913951,1.71,0.073425,-0.0149875,-0.020624999,0.16214377,0.22775078,0.17943418,0.073097095,9.685297,1.5362604,0.062371723,-6.9789839,110.4071253,0.91521347,0.004641058,0.08014538
1782141443632,0.16800001,9.92205,1.64505,0.0873125,0.0031625,-0.037675,0.09644226,0.23474598,0.12143123,0.07261194,9.686731,1.5272043,0.062371723,-6.9789839,110.4071253,0.36472145,7.652538E-4,0.6345133
1782141443661,0.069000006,9.864,1.52505,0.0968,0.0265375,-0.044,-0.07221846,0.097984314,0.019361615,0.0698793,9.687959,1.5195314,0.062371723,-6.9789839,110.4071253,0.36472145,7.652538E-4,0.6345133
1782141443670,-0.057000004,9.795,1.52505,0.095837496,0.0350625,-0.0237875,-0.10765058,0.10151482,0.04039836,0.053254038,9.692786,1.4891175,0.062371723,-6.9789839,110.4071253,0.36472145,7.652538E-4,0.6345133
1782141443684,-0.081,9.831,1.5280501,0.0925375,0.022275,-0.018424999,-0.05897647,0.094771385,0.058907032,0.050650578,9.693485,1.4846517,0.062371723,-6.9789839,110.4071253,0.36472145,7.652538E-4,0.6345133
1782141443692,0.024,9.759001,1.5109501,0.08305,-0.009625,0.0017875,-0.02166782,0.06377125,0.037570834,0.04592647,9.695279,1.4730431,0.062371723,-6.9789839,110.4071253,0.36472145,7.652538E-4,0.6345133
1782141443699,0.036000002,9.688951,1.5010501,0.0765875,-0.05335,0.0144375,-0.012296703,-0.0078372955,0.03804612,0.047369946,9.696326,1.466092,0.062371723,-6.9789839,110.4071253,0.36472145,7.652538E-4,0.6345133
1782141443719,0.04095,9.687,1.4610001,0.0765875,-0.0576125,0.0155375,-0.06346111,-0.101659775,-0.061400533,0.048296705,9.696788,1.463004,0.062371723,-6.9789839,110.4071253,0.36472145,7.652538E-4,0.6345133
1782141443719,0.033,9.639001,1.4650501,0.0798875,-0.060775,0.0092124995,-0.06346111,-0.101659775,-0.061400533,0.05251111,9.69971,1.4433506,0.062371723,-6.9789839,110.4071253,0.36472145,7.652538E-4,0.6345133
1782141443729,-0.076050006,9.46605,1.314,0.0851125,-0.059675,0.013475,-0.12792018,-0.23450089,-0.12371695,0.052806586,9.700443,1.4383973,0.062371723,-6.9789839,110.4071253,0.36472145,7.652538E-4,0.6345133
1782141443739,-0.22695,9.375,1.06305,0.090475,-0.0702625,0.0092124995,-0.27892482,-0.32798958,-0.3581097,0.051824003,9.701389,1.4320407,0.062371723,-6.9789839,110.4071253,0.36472145,7.652538E-4,0.6345133
1782141443749,-0.034950003,8.764951,0.95295006,0.088275,-0.1065625,-4.125E-4,-0.0858642,-0.93908215,-0.4611048,0.050381403,9.703277,1.419256,0.062371723,-6.9789839,110.4071253,0.36472145,7.652538E-4,0.6345133
1782141443769,0.89100003,7.5739503,0.89505005,0.08195,-0.124575,-0.003575,2.3203304,-3.9778633,-0.098382115,0.050914194,9.704033,1.4140549,0.062371723,-6.9789839,110.4071253,0.36472145,7.652538E-4,0.6345133
1782141443770,1.5780001,6.94005,1.09695,0.047849998,-0.273625,-0.233475,2.3203304,-3.9778633,-0.098382115,0.04066957,9.705914,1.4014322,0.062371723,-6.9789839,110.4071253,0.36472145,7.652538E-4,0.6345133
1782141443780,0.615,4.87995,0.78300005,-0.008525,-0.5044875,-0.5867125,0.6474363,-4.8258224,-0.6196099,0.024253275,9.706132,1.4002888,0.062371723,-6.9789839,110.4071253,0.36472145,7.652538E-4,0.6345133
1782141443806,-0.957,4.2670503,1.2090001,-0.0532125,-0.41305,-0.7442875,-2.3818948,-6.006048,-0.5443508,-0.03239245,9.705769,1.4026462,0.062371723,-6.9789839,110.4071253,0.36472145,7.652538E-4,0.6345133
1782141443816,-2.35605,3.5119503,0.84000003,-0.0341,-0.35227498,-0.217525,-2.1813414,-6.1902103,-0.5770167,-0.16639264,9.702596,1.4150504,0.062371723,-6.9789839,110.4071253,0.36472145,7.652538E-4,0.6345133
1782141443839,-1.8460501,3.5389502,0.98205006,-0.0532125,-0.3075875,0.061325,-1.9050655,-6.203451,-0.527287,-0.17093466,9.701451,1.422337,0.062371723,-6.9789839,110.4071253,0.36472145,7.652538E-4,0.6345133
1782141443846,1.45395,9.81105,1.57095,-0.0383625,-0.205425,0.4838625,1.508497,0.11025524,0.13498318,-0.12288813,9.700714,1.4322867,0.062371723,-6.9789839,110.4071253,0.36472145,7.652538E-4,0.6345133
1782141443856,0.381,17.478,6.636,-0.31707498,0.0946,0.36574998,0.4182551,7.779499,5.184084,-0.05454466,9.700795,1.435964,0.062371723,-6.9789839,110.4071253,0.36472145,7.652538E-4,0.6345133
1782141443869,-3.726,-1.9470001,0.51900005,0.2182125,-0.3619,-0.905025,-3.6029036,-11.644303,-0.9361801,-0.08118074,9.696172,1.4656243,0.062371723,-6.9789839,110.4071253,0.36472145,7.652538E-4,0.6345133
1782141443887,-3.1390502,0.84705,1.029,0.1447875,-0.198,-0.5388625,-3.0139942,1.0368595,-0.68132627,-0.1534893,9.697756,1.4492648,0.062371723,-6.9789839,110.4071253,0.36472145,7.652538E-4,0.6345133
1782141443888,-2.83695,4.059,1.3120501,0.1447875,-0.198,-0.5388625,-3.0139942,1.0368595,-0.68132627,-0.1534893,9.697756,1.4492648,0.062371723,-6.9789839,110.4071253,0.36472145,7.652538E-4,0.6345133
1782141443896,-1.52205,8.97105,3.3019502,-0.0372625,0.265925,0.224125,-1.3019598,-0.72780037,1.8686903,-0.2139844,9.702694,1.4079612,0.062371723,-6.9789839,110.4071253,0.36472145,7.652538E-4,0.6345133
1782141443921,1.3960501,6.3889503,-0.162,0.1533125,-0.027775,0.1837,0.104229055,-3.682218,-0.65399104,-0.21551469,9.698599,1.435667,0.062371723,-6.9789839,110.4071253,0.36472145,7.652538E-4,0.6345133
1782141443931,0.109950006,9.900001,1.626,-0.104225,0.0584375,0.0400125,0.27794832,0.20136642,0.18423879,-0.16799831,9.698634,1.4417613,0.062371723,-6.9789839,110.4071253,0.36472145,7.652538E-4,0.6345133
1782141443953,0.081,10.116,2.11905,-0.055275,0.091437496,0.0081124995,-0.02223888,-0.33821583,0.26907086,-0.16680121,9.69794,1.4465613,0.062371723,-6.9789839,110.4071253,0.36472145,7.652538E-4,0.6345133
1782141443961,-0.22200002,10.10805,1.7260501,-0.023375,-0.0053625,-0.005775,-0.057559982,0.41456795,0.24964547,-0.16392156,9.693864,1.4739474,0.062371723,-6.9789839,110.4071253,0.36472145,7.652538E-4,0.6345133
1782141443972,-0.23595001,9.89505,1.6500001,0.0,-0.0224125,0.00275,-0.06985664,0.20219803,0.16964865,-0.16579963,9.69307,1.4789468,0.062371723,-6.9789839,110.4071253,0.36472145,7.652538E-4,0.6345133
1782141443981,-0.18795002,9.562051,1.7580001,0.01485,-0.0011,0.0166375,-0.023311242,-0.13021278,0.2736454,-0.16532326,9.692785,1.4808757,0.062371723,-6.9789839,110.4071253,0.36472145,7.652538E-4,0.6345133
1782141444000,-0.08505,10.065001,1.52295,0.0287375,-0.0127875,0.0198,0.103104346,0.4943323,-0.0815357,-0.16289544,9.692078,1.4857746,0.062371723,-6.9789839,110.4071253,0.36472145,7.652538E-4,0.6345133
1782141444001,-0.057000004,10.186951,1.401,0.039325,-0.0383625,0.0251625,0.103104346,0.4943323,-0.0815357,-0.16010435,9.692618,1.4825357,0.062371723,-6.9789839,110.4071253,0.36472145,7.652538E-4,0.6345133
1782141444012,-0.052050002,9.979051,1.24695,0.0287375,-0.0341,0.0251625,0.101237364,0.28444004,-0.22323823,-0.15567192,9.693978,1.4741005,0.062371723,-6.9789839,110.4071253,0.36472145,7.652538E-4,0.6345133
1782141444041,-0.11895001,9.691951,1.2070501,0.01705,-0.027775,0.0198,-0.0060203075,0.23153591,-0.13833058,-0.15091361,9.695224,1.4663708,0.062371723,-6.9789839,110.4071253,0.36472145,7.652538E-4,0.6345133
1782141444052,-0.21495001,9.94995,1.422,-0.0191125,-0.0044,0.029424999,-0.07067919,0.25225067,-0.028588653,-0.14510463,9.697728,1.4503199,0.062371723,-6.9789839,110.4071253,0.36472145,7.652538E-4,0.6345133
1782141444073,-0.24300002,9.78705,1.48695,-0.023375,0.0083875,0.0325875,-0.10951324,0.28022003,0.08466542,-0.14427082,9.6977,1.4505887,0.062371723,-6.9789839,110.4071253,0.36472145,7.652538E-4,0.6345133
1782141444082,-0.19095,9.77805,1.389,-0.0180125,-1.375E-4,0.062425,-0.053391248,0.08135128,-0.06891799,-0.139827,9.696615,1.4582541,0.062371723,-6.9789839,110.4071253,0.36472145,7.652538E-4,0.6345133
1782141444093,-0.08295,9.826051,1.33095,-0.022275,-0.0064625,0.0719125,0.047108464,0.12906647,-0.12575102,-0.13057722,9.69671,1.4584798,0.062371723,-6.9789839,110.4071253,0.36472145,7.652538E-4,0.6345133
1782141444102,-0.054,9.826051,1.33395,-0.0350625,-0.0149875,0.0741125,0.06682886,0.12887478,-0.12226939,-0.12534839,9.697118,1.4562253,0.062371723,-6.9789839,110.4071253,0.36472145,7.652538E-4,0.6345133
1782141444119,-0.064050004,9.868951,1.38195,-0.041525,-0.01815,0.0719125,0.015356034,0.07438469,-0.009971857,-0.12082886,9.697176,1.4562194,0.062371723,-6.9789839,110.4071253,0.36472145,7.652538E-4,0.6345133
1782141444124,-0.105000004,9.8230505,1.4970001,-0.057475,-0.0331375,0.0719125,-0.0044923425,0.12722874,0.030258656,-0.108356036,9.696616,1.4609219,0.062371723,-6.9789839,110.4071253,0.36472145,7.652538E-4,0.6345133
1782141444133,-0.11595,9.81105,1.48695,-0.0628375,-0.0490875,0.077275,-0.019310996,0.115647316,0.017174363,-0.10058833,9.695825,1.4667209,0.062371723,-6.9789839,110.4071253,0.36472145,7.652538E-4,0.6345133
1782141444149,-0.126,9.864,1.4250001,-0.064899996,-0.044825,0.088,-0.045843348,0.14902115,-0.079123974,-0.0928326,9.695018,1.4725451,0.062371723,-6.9789839,110.4071253,0.36472145,7.652538E-4,0.6345133
1782141444154,-0.11400001,9.868951,1.386,-0.064899996,-0.044825,0.088,-0.03345114,0.17478466,-0.092864275,-0.080156654,9.693979,1.480124,0.062371723,-6.9789839,110.4071253,0.36472145,7.652538E-4,0.6345133
1782141444163,-0.11400001,9.79905,1.3909501,-0.0638,-0.0224125,0.095425,-0.041925825,0.10536003,-0.09146762,-0.07634294,9.693923,1.4806875,0.062371723,-6.9789839,110.4071253,0.36472145,7.652538E-4,0.6345133
1782141444173,-0.07305,9.8209505,1.4460001,-0.0669625,-0.0011,0.1049125,-0.010694373,0.1279478,-0.041357398,-0.067371115,9.693359,1.4848061,0.062371723,-6.9789839,110.4071253,0.36472145,7.652538E-4,0.6345133
1782141444183,-0.022950001,9.831,1.4460001,-0.072325,0.01485,0.109175,0.028797429,0.13877678,-0.046815038,-0.057288993,9.692621,1.4900422,0.062371723,-6.9789839,110.4071253,0.36472145,7.652538E-4,0.6345133
1782141444201,0.043050002,9.802051,1.56105,-0.0776875,0.0083875,0.110275,0.10661805,0.10459614,0.12087834,-0.03266805,9.690404,1.5051217,0.062371723,-6.9789839,110.4071253,0.36472145,7.652538E-4,0.6345133
1782141444201,0.07395,9.795,1.626,-0.0776875,0.0083875,0.110275,0.10661805,0.10459614,0.12087834,-0.03266805,9.690404,1.5051217,0.062371723,-6.9789839,110.4071253,0.36472145,7.652538E-4,0.6345133
1782141444213,0.10305001,9.79695,1.72395,-0.0776875,-0.0246125,0.1049125,0.115833506,0.10926151,0.2011472,-0.014095746,9.688,1.5208068,0.062371723,-6.9789839,110.4071253,0.36472145,7.652538E-4,0.6345133
1782141444220,0.10305001,9.78705,1.7220001,-0.0691625,-0.0468875,0.0996875,0.10925354,0.100234985,0.19360685,-0.006203531,9.686815,1.5283933,0.062371723,-6.9789839,110.4071253,0.36472145,7.652538E-4,0.6345133
1782141444232,0.12705001,9.768001,1.695,-0.0691625,-0.0468875,0.0996875,0.11291794,0.10171032,0.11423731,-0.006203531,9.686815,1.5283933,0.062371723,-6.9789839,110.4071253,0.36472145,7.652538E-4,0.6345133
1782141444247,0.108,9.76605,1.48695,-0.0521125,-0.0457875,0.0889625,0.08289859,0.08189201,-0.057985187,0.019350305,9.684435,1.5432886,0.062371723,-6.9789839,110.4071253,0.8460751,4.4460886E-4,0.15348028
1782141444254,0.12705001,9.795,1.4130001,-0.04895,-0.028875,0.0847,0.091027394,0.111185074,-0.13387859,0.030630117,9.683927,1.5462884,0.062371723,-6.9789839,110.4071253,0.8460751,4.4460886E-4,0.15348028
1782141444265,0.109950006,9.79695,1.35,-0.050049998,-0.0160875,0.0837375,0.05955752,0.12313557,-0.23426282,0.036022622,9.683815,1.5468787,0.062371723,-6.9789839,110.4071253,0.8460751,4.4460886E-4,0.15348028
1782141444270,0.109950006,9.78705,1.3099501,-0.0617375,0.006325,0.078375,0.06008649,0.10317516,-0.23615587,0.045442484,9.683865,1.5463129,0.062371723,-6.9789839,110.4071253,0.8460751,4.4460886E-4,0.15348028
1782141444284,0.12900001,9.8230505,1.4320501,-0.08195,0.023375,0.076175,0.06590321,0.13965511,-0.11658275,0.058900516,9.683827,1.5461007,0.062371723,-6.9789839,110.4071253,0.8460751,4.4460886E-4,0.15348028
1782141444298,0.141,9.816001,1.4820001,-0.095699996,0.01595,0.0741125,0.048485503,0.0930891,-0.0012654066,0.0630968,9.683395,1.5486329,0.062371723,-6.9789839,110.4071253,0.8460751,4.4460886E-4,0.15348028
1782141444304,0.105000004,9.816001,1.6690501,-0.1192125,-0.0405625,0.06875,0.025359191,0.13613224,0.09927392,0.07964081,9.679869,1.5697762,0.062371723,-6.9789839,110.4071253,0.8460751,4.4460886E-4,0.15348028
1782141444315,0.08595,9.850051,1.7500501,-0.120175,-0.0490875,0.07095,-0.027251288,0.12652206,0.17590737,0.07964081,9.679869,1.5697762,0.062371723,-6.9789839,110.4071253,0.8460751,4.4460886E-4,0.15348028
1782141444320,0.06705,9.78705,1.7740501,-0.11275,-0.05115,0.0719125,-0.023955964,0.11077118,0.18290842,0.08725129,9.677479,1.5840427,0.062371723,-6.9789839,110.4071253,0.8460751,4.4460886E-4,0.15348028
1782141444335,0.13905,9.744,1.60695,-0.095699996,-0.0617375,0.076175,0.03471957,0.07063961,-0.0010317564,0.099675015,9.674153,1.6035061,0.062371723,-6.9789839,110.4071253,0.8460751,4.4460886E-4,0.15348028
1782141444352,0.09105001,9.804001,1.5880501,-0.0979,-0.0735625,0.0741125,-0.017301068,0.13138771,-0.024155974,0.104330435,9.673361,1.6079818,0.062371723,-6.9789839,110.4071253,0.8460751,4.4460886E-4,0.15348028
1782141444352,0.12705001,9.74895,1.554,-0.1010625,-0.052249998,0.076175,-0.017301068,0.13138771,-0.024155974,0.11718203,9.67113,1.6204636,0.062371723,-6.9789839,110.4071253,0.8460751,4.4460886E-4,0.15348028
1782141444360,0.18195,9.75195,1.54005,-0.0979,-0.0309375,0.077275,0.051639616,0.08301258,-0.092453,0.121727854,9.67041,1.6244215,0.062371723,-6.9789839,110.4071253,0.8460751,4.4460886E-4,0.15348028
1782141444370,0.177,9.75405,1.50405,-0.0925375,0.0083875,0.077275,0.038522676,0.08627796,-0.13466358,0.13439561,9.668327,1.635774,0.062371723,-6.9789839,110.4071253,0.8460751,4.4460886E-4,0.15348028
1782141444384,0.18,9.8209505,1.49205,-0.0968,0.01265,0.076175,0.08342123,0.08835888,-0.21705842,0.13847733,9.667772,1.6387136,0.062371723,-6.9789839,110.4071253,0.8460751,4.4460886E-4,0.15348028
1782141444392,0.31095,9.84,1.45095,-0.124437496,-0.0022,0.0719125,0.15766557,0.17362404,-0.19467616,0.14831308,9.667127,1.6416643,0.062371723,-6.9789839,110.4071253,0.8460751,4.4460886E-4,0.15348028
1782141444400,0.52395004,9.771001,1.48695,-0.139425,0.0105875,0.062425,0.3556732,0.10752106,-0.174142,0.15902825,9.665677,1.6491795,0.062371723,-6.9789839,110.4071253,0.8460751,4.4460886E-4,0.15348028
1782141444410,0.35700002,9.844951,1.6279501,-0.139425,0.07755,0.0411125,0.18423639,0.18257713,-0.039117455,0.16978696,9.663509,1.6607782,0.062371723,-6.9789839,110.4071253,0.8460751,4.4460886E-4,0.15348028
1782141444421,0.17205001,9.696,1.4650501,-0.153175,0.054175,0.028324999,-0.0031577945,0.035158157,-0.21060991,0.17447452,9.661473,1.6720973,0.062371723,-6.9789839,110.4071253,0.8460751,4.4460886E-4,0.15348028
1782141444439,0.17205001,9.771001,1.4250001,-0.1681625,0.0350625,0.0262625,0.027857587,0.14632225,-0.13754487,0.17520781,9.660842,1.67566,0.062371723,-6.9789839,110.4071253,0.8460751,4.4460886E-4,0.15348028
1782141444441,0.18705001,9.73995,1.4580001,-0.1926375,0.070125,0.0262625,0.027857587,0.14632225,-0.13754487,0.17809242,9.657679,1.6934949,0.062371723,-6.9789839,110.4071253,0.8460751,4.4460886E-4,0.15348028
1782141444453,0.27105,9.711,1.9039501,-0.1852125,0.1403875,0.0240625,0.08996278,0.060199738,0.17199886,0.18052287,9.65271,1.7213346,0.062371723,-6.9789839,110.4071253,0.8460751,4.4460886E-4,0.15348028
1782141444473,0.282,9.75195,1.9950001,-0.1766875,0.1733875,0.0209,0.07700358,0.035759926,0.34194314,0.18108723,9.650801,1.7319512,0.062371723,-6.9789839,110.4071253,0.8460751,4.4460886E-4,0.15348028
1782141444475,0.25905,9.684,2.088,-0.132,0.2223375,0.00385,0.11014816,0.08909893,0.46546936,0.17980185,9.642901,1.7755308,0.062371723,-6.9789839,110.4071253,0.8460751,4.4460886E-4,0.15348028
1782141444483,0.27795002,9.67695,2.1720002,-0.1032625,0.1967625,-0.0078375,0.04393205,0.09465885,0.4595046,0.17911796,9.640342,1.7894454,0.062371723,-6.9789839,110.4071253,0.8460751,4.4460886E-4,0.15348028
1782141444492,0.17205001,9.75405,2.12895,-0.0968,0.168025,-0.0100375,0.023699895,0.08612442,0.36222875,0.17730011,9.638826,1.7977713,0.062371723,-6.9789839,110.4071253,0.8460751,4.4460886E-4,0.15348028
1782141444502,0.14595,9.712951,2.05695,-0.090475,0.102025,-0.0121,-0.026094079,0.07796574,0.23819971,0.17374417,9.636212,1.8120763,0.062371723,-6.9789839,110.4071253,0.8460751,4.4460886E-4,0.15348028
1782141444520,0.12900001,9.76095,1.9159501,-0.091575,0.071225,-0.014162499,-0.031382263,0.09104633,0.15538406,0.17204408,9.634985,1.8187504,0.062371723,-6.9789839,110.4071253,0.8460751,4.4460886E-4,0.15348028
1782141444521,0.10305001,9.79695,1.8940501,-0.0925375,-0.0064625,-0.011,-0.06465927,0.16481781,0.0598526,0.16770928,9.632133,1.8341975,0.062371723,-6.9789839,110.4071253,0.8460751,4.4460886E-4,0.15348028
1782141444533,0.079050004,9.783,1.743,-0.0999625,-0.027775,-0.0078375,-0.08508141,0.15398121,-0.107794404,0.16492139,9.630668,1.8421266,0.062371723,-6.9789839,110.4071253,0.8460751,4.4460886E-4,0.15348028
1782141444559,0.0,9.819,1.386,-0.1117875,-0.0341,6.875E-4,0.04447086,0.10658646,0.2093091,0.1617945,9.629392,1.8490632,0.062371723,-6.9789839,110.4071253,0.8460751,4.4460886E-4,0.15348028
1782141444570,0.14805001,9.843,1.626,-0.124437496,-0.010725,0.0177375,-0.016429186,0.22060204,-0.25888145,0.16356005,9.62413,1.8761032,0.062371723,-6.9789839,110.4071253,0.8460751,4.4460886E-4,0.15348028
1782141444586,0.35895002,9.802051,2.8210502,-0.099,0.0946,0.0144375,-0.011527419,-0.06129265,0.384282,0.16452743,9.6212435,1.8907682,0.062371723,-6.9789839,110.4071253,0.8460751,4.4460886E-4,0.15348028
1782141444588,0.294,9.649051,2.35395,-0.073425,0.022275,0.00495,-0.056284517,0.16986561,-0.15120804,0.16682547,9.617531,1.9093647,0.062371723,-6.9789839,110.4071253,0.8460751,4.4460886E-4,0.15348028
1782141444596,0.061950002,9.61695,2.052,-0.0617375,0.0180125,-0.0015125,-0.102638215,7.0762634E-4,0.13596702,0.16623452,9.617185,1.9111581,0.062371723,-6.9789839,110.4071253,0.8460751,4.4460886E-4,0.15348028
1782141444612,-0.126,9.603001,1.8370501,-0.0543125,0.0105875,0.012375,-0.28405237,-0.011837959,-0.08656418,0.16146483,9.615049,1.9222716,0.062371723,-6.9789839,110.4071253,0.8460751,4.4460886E-4,0.15348028
1782141444617,-0.13995,9.871051,1.9609501,-0.0617375,0.0031625,0.0314875,-0.29635462,0.25731277,0.03170991,0.1561261,9.614828,1.9238253,0.062371723,-6.9789839,110.4071253,0.8460751,4.4460886E-4,0.15348028
1782141444636,-0.034950003,9.768001,1.7890501,-0.105325,-0.1555125,0.0666875,-0.103083886,0.10547924,-0.19669867,0.15610768,9.613317,1.9313644,0.062371723,-6.9789839,110.4071253,0.8460751,4.4460886E-4,0.15348028
1782141444637,0.057000004,9.71805,1.7380501,-0.105325,-0.1555125,0.0666875,-0.103083886,0.10547924,-0.19669867,0.16008389,9.612571,1.9347488,0.062371723,-6.9789839,110.4071253,0.8460751,4.4460886E-4,0.15348028
1782141444648,0.25605002,9.71595,1.7500501,-0.1255375,-0.16499999,0.0730125,0.080144584,0.105238914,-0.19255352,0.16989276,9.611518,1.9391373,0.062371723,-6.9789839,110.4071253,0.8460751,4.4460886E-4,0.15348028
1782141444657,0.39705002,9.660001,1.9660501,-0.1309,-0.1054625,0.0719125,0.20772076,0.051765442,0.012500763,0.1822586,9.609657,1.9472243,0.062371723,-6.9789839,110.4071253,0.8460751,4.4460886E-4,0.15348028
1782141444672,0.41700003,9.65295,2.08605,-0.104225,0.01375,0.0559625,0.21551035,0.059900284,0.13700175,0.20148967,9.60505,1.9679484,0.062371723,-6.9789839,110.4071253,0.8460751,4.4460886E-4,0.15348028
1782141444677,0.321,9.687,2.12595,-0.095699996,0.0243375,0.0496375,0.11159563,0.084685326,0.14552212,0.20607963,9.603609,1.9744886,0.062371723,-6.9789839,110.4071253,0.8460751,4.4460886E-4,0.15348028
1782141444688,0.51495004,9.59805,2.31795,-0.089375,0.0254375,0.03575,0.29670215,-0.0010108948,0.32275522,0.21331455,9.600829,1.9871991,0.062371723,-6.9789839,110.4071253,0.8460751,4.4460886E-4,0.15348028
1782141444705,0.49800003,9.655951,2.292,-0.08305,0.0243375,0.030524999,0.29670215,-0.0010108948,0.32275522,0.2182479,9.599061,1.9951948,0.062371723,-6.9789839,110.4071253,0.8460751,4.4460886E-4,0.15348028
1782141444706,0.36405003,9.660001,2.217,-0.055275,0.0191125,0.00385,0.0717019,0.09643364,0.12955713,0.22529812,9.595517,2.011393,0.062371723,-6.9789839,110.4071253,0.8460751,4.4460886E-4,0.15348028
1782141444718,0.24900001,9.687,2.22195,-0.0671,-0.0543125,-0.003575,0.0231954,0.09410858,0.19812894,0.22514878,9.593923,2.0189953,0.062371723,-6.9789839,110.4071253,0.8460751,4.4460886E-4,0.15348028
1782141444728,0.177,9.72,2.40405,-0.050049998,-0.0224125,-0.0015125,-0.04890485,0.12920475,0.37033367,0.22605975,9.591864,2.0286593,0.062371723,-6.9789839,110.4071253,0.8460751,4.4460886E-4,0.15348028
1782141444746,0.21495001,9.744,2.4379501,0.0213125,0.054175,-0.003575,0.16314092,0.08702946,0.48406076,0.2268591,9.587971,2.0468893,0.062371723,-6.9789839,110.4071253,0.8460751,4.4460886E-4,0.15348028
1782141444748,0.27795002,9.580951,2.4810002,0.0213125,0.054175,-0.003575,0.16314092,0.08702946,0.48406076,0.2268591,9.587971,2.0468893,0.062371723,-6.9789839,110.4071253,0.8460751,4.4460886E-4,0.15348028
1782141444776,0.48795003,9.62205,2.397,0.058575,0.0510125,-0.018424999,0.16557233,0.014472008,0.32011485,0.23029841,9.586679,2.0525463,0.062371723,-6.9789839,110.4071253,0.9779765,7.2401325E-4,0.021299511
1782141444784,0.53895,9.591001,2.08305,0.106425,-0.0352,-0.067375,0.30789202,0.001824379,0.042281866,0.22935587,9.5882635,2.0452344,0.062371723,-6.9789839,110.4071253,0.9779765,7.2401325E-4,0.021299511
1782141444801,0.59895,9.649051,1.899,0.100099996,-0.0702625,-0.1205875,0.2629728,0.09080887,-0.14852178,0.23307723,9.593191,2.0215719,0.062371723,-6.9789839,110.4071253,0.9779765,7.2401325E-4,0.021299511
1782141444805,0.45495003,9.655951,1.87995,0.100099996,-0.0702625,-0.1205875,0.22979599,0.060133934,-0.13002777,0.23307723,9.593191,2.0215719,0.062371723,-6.9789839,110.4071253,0.9779765,7.2401325E-4,0.021299511
1782141444814,0.58395004,9.579,2.02095,0.0947375,-0.0617375,-0.14093749,0.35497937,-0.01768589,0.01556778,0.22901364,9.595815,2.009549,0.062371723,-6.9789839,110.4071253,0.9779765,7.2401325E-4,0.021299511
1782141444824,0.53595,9.694051,2.052,0.093637496,-0.0702625,-0.1695375,0.31401464,0.095495224,0.05477929,0.22635172,9.597574,2.001431,0.062371723,-6.9789839,110.4071253,0.9779765,7.2401325E-4,0.021299511
1782141444841,0.462,9.670051,2.079,0.095837496,-0.066,-0.183425,0.5008864,-0.26436996,0.06484878,0.22193536,9.598556,1.9972208,0.062371723,-6.9789839,110.4071253,0.9779765,7.2401325E-4,0.021299511
1782141444844,0.21495001,9.723001,2.1340501,0.105325,-0.0895125,-0.2303125,0.019830465,0.12052727,0.15292943,0.20516367,9.60142,1.9852012,0.062371723,-6.9789839,110.4071253,0.9779765,7.2401325E-4,0.021299511
1782141444855,0.093,9.651,2.15805,0.1095875,-0.1117875,-0.25795,-0.07865099,0.046499252,0.18460357,0.1838181,9.60354,1.9770219,0.062371723,-6.9789839,110.4071253,0.9779765,7.2401325E-4,0.021299511
1782141444865,-0.054,9.759001,2.1360002,0.138325,-0.0576125,-0.25795,-0.19921307,0.15185928,0.17331183,0.15876637,9.60577,1.9683424,0.062371723,-6.9789839,110.4071253,0.9779765,7.2401325E-4,0.021299511
1782141444875,0.14400001,9.559951,1.8100501,0.1670625,-0.01815,-0.2514875,0.021915011,-0.050793648,-0.13650715,0.12188655,9.6104765,1.9478971,0.062371723,-6.9789839,110.4071253,0.9779765,7.2401325E-4,0.021299511
1782141444891,-0.33900002,9.80895,1.659,0.1533125,-0.0298375,-0.247225,0.021915011,-0.050793648,-0.13650715,0.122085,9.610744,1.9465573,0.062371723,-6.9789839,110.4071253,0.9779765,7.2401325E-4,0.021299511
1782141444896,-0.54300004,9.876,1.51995,0.155375,0.0191125,-0.22605,-0.6002218,0.25585938,-0.38267577,0.07335078,9.617812,1.913817,0.062371723,-6.9789839,110.4071253,0.9779765,7.2401325E-4,0.021299511
1782141444906,-0.423,9.89805,1.4580001,0.138325,0.0584375,-0.184525,-0.45127392,0.2734356,-0.42253017,0.041527357,9.622483,1.8911539,0.062371723,-6.9789839,110.4071253,0.9779765,7.2401325E-4,0.021299511
1782141444925,-0.354,9.847051,1.4820001,0.123475,0.055275,-0.1643125,-0.21787895,0.18816853,-0.10259426,0.028273908,9.624615,1.8805302,0.062371723,-6.9789839,110.4071253,0.9779765,7.2401325E-4,0.021299511
1782141444927,-0.28905,9.835051,1.52295,0.0873125,0.119075,-0.1131625,-0.21787895,0.18816853,-0.10259426,-0.013121055,9.630832,1.8485943,0.062371723,-6.9789839,110.4071253,0.9779765,7.2401325E-4,0.021299511
1782141444936,-0.31305,9.78705,1.9110001,0.08415,0.119075,-0.104637496,-0.28282467,0.15469265,0.07057738,-0.021590486,9.631644,1.8442806,0.062371723,-6.9789839,110.4071253,0.9779765,7.2401325E-4,0.021299511
1782141444958,-0.483,9.946051,1.8370501,0.0680625,0.0435875,-0.0419375,-0.4871242,0.17338371,-0.048668623,-0.06292583,9.635567,1.8227187,0.062371723,-6.9789839,110.4071253,0.9779765,7.2401325E-4,0.021299511
1782141444968,-0.48795003,9.852,1.7050501,0.0617375,0.0328625,-0.0259875,-0.43362355,0.2806301,-0.051524162,-0.068426475,9.63632,1.8185242,0.062371723,-6.9789839,110.4071253,0.9779765,7.2401325E-4,0.021299511
1782141444976,-0.39405003,9.843,1.5949501,0.0521125,0.0265375,0.0092124995,-0.31407866,0.2041111,-0.209445,-0.07734715,9.6380005,1.8092426,0.062371723,-6.9789839,110.4071253,0.9779765,7.2401325E-4,0.021299511
1782141444986,-0.30600002,9.844951,1.554,0.0372625,0.0276375,0.03575,-0.22388142,0.20442295,-0.24151158,-0.08152765,9.6397085,1.799937,0.062371723,-6.9789839,110.4071253,0.9779765,7.2401325E-4,0.021299511
1782141445004,-0.282,9.802051,1.554,0.01705,0.0297,0.0581625,-0.21297474,0.21148586,-0.18808448,-0.08242723,9.641308,1.7913042,0.062371723,-6.9789839,110.4071253,0.9779765,7.2401325E-4,0.021299511
1782141445006,-0.30105,9.838051,1.5880501,0.0064625,0.053075,0.0752125,-0.22475177,0.1951046,-0.19467616,-0.08102526,9.642465,1.7851346,0.062371723,-6.9789839,110.4071253,0.9779765,7.2401325E-4,0.021299511
1782141445016,-0.22395001,9.828,1.60905,-0.008525,0.0669625,0.095425,-0.14824186,0.1844101,-0.17023051,-0.078329146,9.643279,1.7808489,0.062371723,-6.9789839,110.4071253,0.9779765,7.2401325E-4,0.021299511
1782141445038,-0.13800001,9.802051,1.63995,-0.01595,0.0999625,0.109175,-0.108040825,0.14544964,-0.1773082,-0.071989425,9.643837,1.7780981,0.062371723,-6.9789839,110.4071253,0.9779765,7.2401325E-4,0.021299511
1782141445039,-0.15,9.77505,1.5850501,-0.01705,0.1808125,0.128425,-0.108040825,0.14544964,-0.1773082,-0.06100918,9.644601,1.7743583,0.062371723,-6.9789839,110.4071253,0.9779765,7.2401325E-4,0.021299511
1782141445048,-0.06105,9.75405,1.674,-0.01705,0.1808125,0.128425,-0.0039007105,0.10894394,-0.097738504,-0.057065997,9.64487,1.7730256,0.062371723,-6.9789839,110.4071253,0.9779765,7.2401325E-4,0.021299511
1782141445056,-0.042000003,9.76605,1.7220001,-0.025575,0.2479125,0.1390125,-0.0033338778,0.121352196,-0.052458167,-0.047844578,9.644983,1.7726842,0.062371723,-6.9789839,110.4071253,0.9779765,7.2401325E-4,0.021299511
1782141445073,-0.021000002,9.759001,1.7340001,-0.0298375,0.2468125,0.1401125,0.094117746,0.08591461,0.0252738,-0.038666125,9.644698,1.7744583,0.062371723,-6.9789839,110.4071253,0.9779765,7.2401325E-4,0.021299511
1782141445075,0.025950002,9.74895,1.7820001,-0.04895,0.202125,0.1379125,0.094117746,0.08591461,0.0252738,-0.027067747,9.644135,1.7777263,0.062371723,-6.9789839,110.4071253,0.9779765,7.2401325E-4,0.021299511
1782141445087,0.13905,9.724951,1.91295,-0.0532125,0.1958,0.13365,0.1478757,0.08256626,0.12556744,-0.008825696,9.642385,1.7873826,0.062371723,-6.9789839,110.4071253,0.9779765,7.2401325E-4,0.021299511
1782141445097,0.20805001,9.687,2.0740502,-0.050049998,0.186175,0.1219625,0.20361671,0.046477318,0.2766354,-0.0020917116,9.641511,1.7921096,0.062371723,-6.9789839,110.4071253,0.9779765,7.2401325E-4,0.021299511
1782141445107,0.261,9.703951,2.19105,-0.0435875,0.14575,0.1082125,0.2438589,0.06560135,0.3820957,0.010785306,9.639416,1.8033143,0.062371723,-6.9789839,110.4071253,0.9779765,7.2401325E-4,0.021299511
1782141445127,0.25395,9.688951,2.22495,-0.0308,0.137225,0.0985875,0.17511162,0.07739258,0.3964554,0.017141106,9.63835,1.8089544,0.062371723,-6.9789839,110.4071253,0.9779765,7.2401325E-4,0.021299511
1782141445128,0.22305001,9.694051,2.2390501,-0.006325,0.0818125,0.06985,0.18557222,0.06417751,0.3776579,0.03747779,9.634823,1.8273423,0.062371723,-6.9789839,110.4071253,0.9779765,7.2401325E-4,0.021299511
1782141445138,0.25395,9.679951,2.15295,0.0127875,0.0413875,0.0528,0.20771226,0.04630947,0.3195877,0.041795947,9.634156,1.8307624,0.062371723,-6.9789839,110.4071253,0.9779765,7.2401325E-4,0.021299511
1782141445156,0.30405003,9.682051,2.0040002,0.0298375,-0.027775,0.0166375,0.2532509,0.029893875,0.10120356,0.05092384,9.633323,1.8349142,0.062371723,-6.9789839,110.4071253,0.9779765,7.2401325E-4,0.021299511
1782141445157,0.31395,9.663,1.9369501,0.0298375,-0.027775,0.0166375,0.2532509,0.029893875,0.10120356,0.06069909,9.633106,1.8357465,0.062371723,-6.9789839,110.4071253,0.9779765,7.2401325E-4,0.021299511
1782141445169,0.28500003,9.708,1.8270001,0.0352,-0.0213125,0.00495,0.21459056,0.053307533,-0.039371252,0.06525456,9.633602,1.8329899,0.062371723,-6.9789839,110.4071253,0.9779765,7.2401325E-4,0.021299511
1782141445178,0.15300001,9.72795,1.83405,0.0457875,0.020075,-0.0237875,0.08198469,0.093024254,0.008249164,0.07101532,9.634926,1.8258009,0.062371723,-6.9789839,110.4071253,0.9779765,7.2401325E-4,0.021299511
1782141445187,0.055050004,9.759001,1.8679501,0.042625,0.020075,-0.035475,-0.012784053,0.12334061,0.04591,0.06984803,9.635293,1.8239152,0.062371723,-6.9789839,110.4071253,0.9779765,7.2401325E-4,0.021299511
1782141445207,-0.09705,9.76305,1.83405,0.0468875,0.0094875,-0.0237875,-0.21676269,0.19053936,0.05711162,0.06493746,9.636113,1.8197528,0.062371723,-6.9789839,110.4071253,0.9779765,7.2401325E-4,0.021299511
1782141445208,-0.11400001,9.816001,1.8649501,0.0468875,0.0094875,-0.0237875,-0.21676269,0.19053936,0.05711162,0.054762688,9.637461,1.8129385,0.062371723,-6.9789839,110.4071253,0.9779765,7.2401325E-4,0.021299511
1782141445218,-0.18405001,9.81105,1.8079501,0.0435875,0.0020625,-0.0132,-0.23280936,0.17262077,-5.9604645E-6,0.05144728,9.637947,1.810452,0.062371723,-6.9789839,110.4071253,0.9779765,7.2401325E-4,0.021299511
1782141445243,-0.14505,9.80895,1.746,0.0468875,0.0083875,0.0017875,-0.10250887,0.14342976,-0.18457627,0.046392333,9.638975,1.8051071,0.062371723,-6.9789839,110.4071253,0.9779765,7.2401325E-4,0.021299511
1782141445253,-0.04695,9.795,1.56105,0.023375,-0.0053625,0.0314875,-0.09158789,0.15210819,-0.22305977,0.044068277,9.6421995,1.787862,0.062371723,-6.9789839,110.4071253,0.9779765,7.2401325E-4,0.021299511
1782141445273,0.0019500001,9.7900505,1.65495,0.009625,0.0105875,0.0411125,-0.019300716,0.11908436,0.014808655,0.04733429,9.643557,1.7804362,0.062371723,-6.9789839,110.4071253,0.9779765,7.2401325E-4,0.021299511
1782141445274,0.012,9.78705,1.7310001,-0.0031625,0.01485,0.045375,-0.019300716,0.11908436,0.014808655,0.05035072,9.643966,1.7781414,0.062371723,-6.9789839,110.4071253,0.9779765,7.2401325E-4,0.021299511
1782141445300,0.031050002,9.76305,1.79295,0.0011,-0.0149875,0.044275,0.014194325,0.11631966,0.23119462,0.059755675,9.642681,1.7848054,0.062371723,-6.9789839,110.4071253,0.9779765,7.2401325E-4,0.021299511
1782141445309,0.076950006,9.759001,2.052,0.0011,-0.0149875,0.044275,0.28012252,0.19808197,0.32138157,0.059755675,9.642681,1.7848054,0.062371723,-6.9789839,110.4071253,0.9779765,7.2401325E-4,0.021299511
1782141445327,0.10305001,9.76305,1.8870001,0.009625,-0.092675,0.0325875,0.42429593,0.1291666,-0.066413045,0.071363695,9.641592,1.7902527,0.062371723,-6.9789839,110.4071253,0.96362674,0.0044497303,0.03192348
1782141445330,0.201,9.79905,1.815,0.025575,-0.076725,0.0187,0.42429593,0.1291666,-0.066413045,0.0837541,9.641834,1.7884132,0.062371723,-6.9789839,110.4071253,0.96362674,0.0044497303,0.03192348
1782141445339,0.27495003,9.883051,1.5010501,0.0,-0.1117875,-0.0174625,0.1830439,0.23935986,-0.27691174,0.09029724,9.643207,1.780677,0.062371723,-6.9789839,110.4071253,0.96362674,0.0044497303,0.03192348
1782141445350,0.19605,9.543,1.542,0.0116875,0.0169125,-0.0248875,0.10367275,-0.10107422,-0.23386633,0.09237725,9.644074,1.7758664,0.062371723,-6.9789839,110.4071253,0.96362674,0.0044497303,0.03192348
1782141445359,0.441,9.580951,1.7820001,0.01815,0.0946,-0.02915,0.34837726,-0.06368065,0.0091843605,0.09055501,9.644568,1.7732735,0.062371723,-6.9789839,110.4071253,0.96362674,0.0044497303,0.03192348
1782141445369,0.01695,9.816001,1.63995,-0.008525,0.004125,-0.051425,-0.07239212,0.1708765,-0.13036275,0.09261019,9.644884,1.7714545,0.062371723,-6.9789839,110.4071253,0.96362674,0.0044497303,0.03192348
1782141445379,-0.112050004,9.859051,1.8460501,-0.0116875,0.020075,-0.0556875,-0.19231421,0.21394348,0.07521355,0.084650755,9.645213,1.7700562,0.062371723,-6.9789839,110.4071253,0.96362674,0.0044497303,0.03192348
1782141445389,-0.14295001,9.77505,1.9590001,-0.0020625,0.0669625,-0.0482625,-0.2183586,0.1301794,0.18666482,0.08026421,9.645107,1.7708366,0.062371723,-6.9789839,110.4071253,0.96362674,0.0044497303,0.03192348
1782141445405,-0.109050006,9.79905,2.0380502,0.0191125,0.0191125,-0.015262499,-0.14940493,0.119166374,0.28380942,0.06720541,9.644344,1.7755291,0.062371723,-6.9789839,110.4071253,0.96362674,0.0044497303,0.03192348
1782141445410,-0.081,9.780001,2.019,0.0191125,0.0191125,-0.015262499,-0.14029711,0.1362648,0.23989248,0.061354924,9.643884,1.7782407,0.062371723,-6.9789839,110.4071253,0.96362674,0.0044497303,0.03192348
1782141445421,-0.07305,9.804001,1.8960001,0.0287375,-0.0138875,-0.0067375,-0.12940142,0.15985203,0.11902845,0.057445936,9.643711,1.7793133,0.062371723,-6.9789839,110.4071253,0.96362674,0.0044497303,0.03192348
1782141445441,-0.03705,9.819,1.76505,0.0352,-0.025575,0.00385,-0.057007287,0.1393671,-0.09025574,0.05518442,9.644152,1.7769858,0.062371723,-6.9789839,110.4071253,0.96362674,0.0044497303,0.03192348
1782141445450,0.08400001,9.74205,1.64505,0.023375,-0.0405625,0.0187,0.026604634,0.09546471,-0.11860919,0.05585282,9.646089,1.7664199,0.062371723,-6.9789839,110.4071253,0.96362674,0.0044497303,0.03192348
1782141445460,0.14400001,9.79905,1.64295,0.01815,-0.0298375,0.0187,0.0821009,0.15149117,-0.115222216,0.058861356,9.647033,1.7611686,0.062371723,-6.9789839,110.4071253,0.96362674,0.0044497303,0.03192348
1782141445474,0.17205001,9.675,1.6519501,0.0138875,-0.0224125,0.0177375,0.11828019,0.09389496,-0.09575343,0.06366817,9.647872,1.7563925,0.062371723,-6.9789839,110.4071253,0.96362674,0.0044497303,0.03192348
1782141445480,0.14805001,9.73995,1.6620001,0.0022,-0.0011,0.00275,0.07969982,0.09128666,-0.0898577,0.067307405,9.648432,1.7531829,0.062371723,-6.9789839,110.4071253,0.96362674,0.0044497303,0.03192348
1782141445490,0.13905,9.768001,1.8049501,0.0,0.0328625,-0.004675,0.06945244,0.1193285,0.053185344,0.06940993,9.648731,1.7514485,0.062371723,-6.9789839,110.4071253,0.96362674,0.0044497303,0.03192348
1782141445501,0.34005,9.40905,1.72395,0.0,0.0308,-0.014162499,0.26764354,-0.23946285,-0.028578162,0.07140198,9.648549,1.7523727,0.062371723,-6.9789839,110.4071253,0.96362674,0.0044497303,0.03192348
1782141445510,-0.13995,9.856951,1.7380501,-0.0180125,-0.0457875,-0.037675,-0.20818856,0.20843601,-0.014637113,0.071380645,9.648556,1.7523353,0.062371723,-6.9789839,110.4071253,0.96362674,0.0044497303,0.03192348
1782141445527,-0.13095,9.759001,1.84395,0.0287375,0.1062875,-0.014162499,-0.06565981,0.07746792,0.39938676,0.06823855,9.648515,1.7526872,0.062371723,-6.9789839,110.4071253,0.96362674,0.0044497303,0.03192348
1782141445528,-0.057000004,9.8230505,2.043,0.0287375,0.1062875,-0.014162499,-0.06565981,0.07746792,0.39938676,0.059659813,9.647483,1.7586633,0.062371723,-6.9789839,110.4071253,0.96362674,0.0044497303,0.03192348
1782141445541,0.012,9.76305,2.01105,0.042625,0.038225,-0.0163625,-0.043073945,0.11631489,0.24813199,0.057936642,9.646388,1.7647201,0.062371723,-6.9789839,110.4071253,0.96362674,0.0044497303,0.03192348
1782141445561,0.0049500004,9.7900505,1.8580501,0.0457875,-0.0022,-0.015262499,0.1787939,-0.015254974,-0.26669014,0.055073947,9.646735,1.762918,0.062371723,-6.9789839,110.4071253,0.96362674,0.0044497303,0.03192348
1782141445562,0.132,9.844951,1.7580001,0.033,-0.0671,-0.02915,0.1787939,-0.015254974,-0.26669014,0.058206107,9.649305,1.7486902,0.062371723,-6.9789839,110.4071253,0.96362674,0.0044497303,0.03192348
1782141445568,0.22005,9.81105,1.623,0.033,-0.0671,-0.02915,0.16115913,0.16119766,-0.12264073,0.058206107,9.649305,1.7486902,0.062371723,-6.9789839,110.4071253,0.96362674,0.0044497303,0.03192348
1782141445581,-0.15,9.804001,1.6620001,0.0202125,-0.0138875,-0.0408375,-0.19948447,0.15262508,-0.07549894,0.053283848,9.650984,1.7395617,0.062371723,-6.9789839,110.4071253,0.96362674,0.0044497303,0.03192348
1782141445591,0.036000002,9.868951,2.1460502,0.026675,0.0510125,-0.0259875,-0.008726738,0.21767998,0.40784574,0.04639438,9.651486,1.7369659,0.062371723,-6.9789839,110.4071253,0.96362674,0.0044497303,0.03192348
1782141445608,0.09105001,9.58395,2.32005,0.025575,0.0276375,-0.0237875,-0.13153116,0.11092377,0.51276696,0.04472674,9.651271,1.7382045,0.062371723,-6.9789839,110.4071253,0.96362674,0.0044497303,0.03192348
1782141445610,-0.09,9.76095,2.25795,0.0341,-0.0713625,-0.02805,-0.13153116,0.11092377,0.51276696,0.041531157,9.650026,1.7451831,0.062371723,-6.9789839,110.4071253,0.96362674,0.0044497303,0.03192348
1782141445621,0.15795001,9.547951,1.554,0.073425,-0.0617375,-0.0174625,0.116788566,-0.10346222,-0.18351007,0.04039689,9.650493,1.7426287,0.062371723,-6.9789839,110.4071253,0.96362674,0.0044497303,0.03192348
1782141445644,0.0049500004,9.86205,1.29495,0.0680625,-0.052249998,-0.0259875,0.05187509,0.16842556,-0.22727048,0.041124914,9.652525,1.7313205,0.062371723,-6.9789839,110.4071253,0.96362674,0.0044497303,0.03192348
1782141445654,-0.018000001,9.768001,1.60395,0.0521125,0.1617,-0.020624999,-0.045984864,0.107910156,-0.08491552,0.033094168,9.659105,1.694398,0.062371723,-6.9789839,110.4071253,0.96362674,0.0044497303,0.03192348
1782141445662,-0.09705,9.795,1.7170501,0.0202125,0.0977625,-0.018424999,-0.12141931,0.13470173,0.029317379,0.024369303,9.660298,1.6877327,0.062371723,-6.9789839,110.4071253,0.96362674,0.0044497303,0.03192348
1782141445671,0.024,9.859051,1.6860001,-0.0031625,0.01265,-0.015262499,0.0028487835,0.19856167,-6.8461895E-4,0.021975977,9.660459,1.6868507,0.062371723,-6.9789839,110.4071253,0.96362674,0.0044497303,0.03192348
1782141445693,0.105000004,9.831,1.6020001,-0.0105875,-0.0224125,-0.0132,-0.1450072,0.10531807,-0.10926926,0.02210428,9.660543,1.6863661,0.062371723,-6.9789839,110.4071253,0.96362674,0.0044497303,0.03192348
